timestamp,yaw,pitch,roll,ax,ay,az,gx,gy,gz,mx,my,mz
1762899119.6382737,-0.10625807041787184,1.8925097057226319,-6.42658889807391,-0.27158746185586763,-1.0226378415614343,9.220632752763942,0.0,0.0,0.0,23.0,-8.0,-51.5625
1762899120.959973,123.61618994751913,1.8920108298690077,-6.428943311178531,-0.33123159500138477,-1.10771060168837,9.76664430748342,0.0,-0.002181661564992912,0.001090830782496456,23.375,-8.75,-51.0
1762899121.6748605,123.45479110606345,1.8924866412536323,-6.428628369298323,-0.3226000781269181,-1.1047461268556895,9.808352664912055,0.0,0.0,-0.003272492347489368,23.0,-8.75,-50.5
1762899121.9263701,123.45479110606345,1.8924866412536323,-6.428628369298323,-0.3254196585236184,-1.1053762819844974,9.781436989528743,0.0,0.0,-0.001090830782496456,23.375,-8.75,-51.25
1762899122.1674457,123.45479110606345,1.8924866412536323,-6.428628369298323,-0.32483360316408755,-1.1164939206207594,9.777213426810066,-0.002181661564992912,-0.003272492347489368,0.0,24.75,-7.6875,-51.0
1762899122.5103025,123.45479110606345,1.8924866412536323,-6.428628369298323,-0.3154343351279199,-1.0917184141486946,9.770638279526505,0.0,0.001090830782496456,0.0,23.375,-8.375,-50.5
1762899122.7896502,123.45479110606345,1.8924866412536323,-6.428628369298323,-0.32281204435329314,-1.1037163329097541,9.781219956146117,0.001090830782496456,0.001090830782496456,-0.001090830782496456,23.0,-9.1875,-50.875
1762899123.0670052,123.45479110606345,1.8924866412536323,-6.428628369298323,-0.31504308702300954,-1.106811200469002,9.794732398460296,0.001090830782496456,-0.002181661564992912,0.0,22.5625,-8.375,-50.5
1762899123.4792387,123.45479110606345,1.8924866412536323,-6.428628369298323,-0.3154216644610316,-1.1144034271874161,9.779056768468052,-0.001090830782496456,0.0,0.001090830782496456,23.75,-8.75,-51.0
1762899123.7189965,123.45479110606345,1.8924866412536323,-6.428628369298323,-0.3198885373253838,-1.0995186547518871,9.768795457361099,-0.002181661564992912,-0.001090830782496456,-0.001090830782496456,23.75,-9.1875,-51.0
1762899123.9746883,-0.0003089578225920073,1.8924744120772963,-6.428586907315275,-0.3190465554379518,-1.1041701093419323,9.77346118949392,0.0,0.001090830782496456,0.001090830782496456,24.0625,-9.1875,-50.875
1762899124.2838268,-0.0003089578225920073,1.8924744120772963,-6.428586907315275,-0.3241502762858866,-1.1015901786094864,9.774517632565434,0.0,0.001090830782496456,0.001090830782496456,24.0625,-8.375,-51.0
1762899124.5319717,-0.0003089578225920073,1.8924744120772963,-6.428586907315275,-0.3291084352796823,-1.0944269428877327,9.782730337363967,0.0,0.001090830782496456,0.001090830782496456,23.375,-8.0,-51.6875
1762899124.7692444,-0.0003089578225920073,1.8924744120772963,-6.428586907315275,-0.3228750752449543,-1.0969109696518822,9.777966520400327,0.0,-0.001090830782496456,0.003272492347489368,23.375,-8.375,-51.0
1762899125.0154338,-0.0003089578225920073,1.8924744120772963,-6.428586907315275,-0.33484437912710224,-1.0936617597002303,9.782545214684445,-0.001090830782496456,-0.001090830782496456,-0.001090830782496456,23.0,-8.75,-51.0
1762899125.2665558,-0.0003089578225920073,1.8924744120772963,-6.428586907315275,-0.3200840815980659,-1.0991854386140725,9.771079610003522,0.002181661564992912,0.002181661564992912,-0.001090830782496456,24.0625,-8.375,-51.0
1762899125.501858,-0.0003089578225920073,1.8924744120772963,-6.428586907315275,-0.31495927359748144,-1.0978280804874276,9.767044907060543,0.001090830782496456,0.001090830782496456,0.001090830782496456,23.75,-8.375,-51.0
1762899125.7361386,-0.0003089578225920073,1.8924744120772963,-6.428586907315275,-0.32520687057915665,-1.0903905442958033,9.785703128658541,0.001090830782496456,0.003272492347489368,-0.001090830782496456,23.0,-8.0,-51.0
1762899125.967375,-0.0003089578225920073,1.8924744120772963,-6.428586907315275,-0.32694263830114567,-1.1041393522262921,9.774921992101579,0.0,0.0,-0.001090830782496456,23.375,-7.6875,-51.0
1762899126.223892,-0.0003089578225920073,1.8924744120772963,-6.428586907315275,-0.3155951587580138,-1.0848580368137106,9.785604732809142,0.001090830782496456,-0.001090830782496456,-0.001090830782496456,24.0625,-8.0,-50.5
1762899126.6029377,-0.0003089578225920073,1.8924744120772963,-6.428586907315275,-0.31625050326454857,-1.1040147068622566,9.794640091081623,-0.001090830782496456,0.001090830782496456,-0.002181661564992912,23.75,-9.1875,-50.0625
1762899126.8620615,-0.0003089578225920073,1.8924744120772963,-6.428586907315275,-0.31752490696154667,-1.1008116090407227,9.783411447832671,0.0,-0.001090830782496456,0.0,22.5625,-7.6875,-50.5625
1762899127.1203268,-0.0003089578225920073,1.8924744120772963,-6.428586907315275,-0.3172369691198409,-1.1000787939551702,9.778859634352646,0.001090830782496456,-0.002181661564992912,0.001090830782496456,23.0,-8.0,-49.75
1762899127.5308127,-0.0003089578225920073,1.8924744120772963,-6.428586907315275,-0.3320619543177015,-1.1002519286638923,9.78376819551169,-0.002181661564992912,0.0,0.0,23.0,-8.75,-50.5
1762899127.7804031,-0.0003089578225920073,1.8924744120772963,-6.428586907315275,-0.3169842233976237,-1.0862024876791325,9.776332124847439,0.0,-0.002181661564992912,0.001090830782496456,23.75,-8.75,-52.0625
1762899128.0462644,-0.0003089578225920073,1.8924744120772963,-6.428586907315275,-0.31889349685979407,-1.0976759064498876,9.776270446145476,-0.002181661564992912,0.0,0.001090830782496456,24.5,-8.75,-51.6875
1762899128.313173,-0.0003089578225920073,1.8924744120772963,-6.428586907315275,-0.3180571587337346,-1.1048431701166577,9.773752449099378,-0.001090830782496456,0.001090830782496456,0.0,23.0,-8.0,-51.0
1762899128.571841,-0.0003089578225920073,1.8924744120772963,-6.428586907315275,-0.3298768147201337,-1.0875993277706588,9.767894945999133,0.001090830782496456,0.002181661564992912,0.0,23.75,-8.375,-50.5
1762899128.8334603,-0.008175789003092411,2.316719105853019,-5.641144015217522,-0.3330838053824321,-1.1014129443957739,9.772975544288695,-0.002181661564992912,0.0,-0.002181661564992912,23.0,-8.75,-51.0
1762899129.1187923,-0.0003089578225920073,1.8924744120772963,-6.428586907315275,-0.3194089177321259,-1.088017567416617,9.792286784835435,0.001090830782496456,0.0,0.0,23.75,-8.375,-50.0625
1762899129.390308,-0.0003089578225920073,1.8924744120772963,-6.428586907315275,-0.32699221570391235,-1.1020631324144523,9.770932411206648,0.002181661564992912,0.001090830782496456,-0.001090830782496456,23.375,-9.1875,-51.0
1762899129.6518583,-0.0003089578225920073,1.8924744120772963,-6.428586907315275,-0.3284575206484647,-1.1003706162250912,9.784809379837657,0.0,0.001090830782496456,0.002181661564992912,23.375,-9.1875,-51.6875
1762899129.9043324,-0.0003089578225920073,1.8924744120772963,-6.428586907315275,-0.3148108270037204,-1.1076574480008008,9.773840848878683,-0.001090830782496456,0.003272492347489368,-0.002181661564992912,23.375,-8.75,-50.5
1762899130.1672544,-0.0003089578225920073,1.8924744120772963,-6.428586907315275,-0.32009100921768907,-1.0956780585367683,9.776218691362606,0.0,-0.002181661564992912,0.0,23.375,-8.0,-51.25
1762899130.423326,-0.0003089578225920073,1.8924744120772963,-6.428586907315275,-0.3299865717399947,-1.097220250626235,9.787379910759467,-0.001090830782496456,-0.002181661564992912,-0.001090830782496456,22.5625,-8.375,-50.0625
1762899130.70945,-0.0003089578225920073,1.8924744120772963,-6.428586907315275,-0.32009615366604943,-1.1042478744059419,9.79097377987654,0.002181661564992912,-0.002181661564992912,0.0,23.0,-9.1875,-50.5
1762899130.9653547,-0.0003089578225920073,1.8924744120772963,-6.428586907315275,-0.3220001158242918,-1.1058727596267937,9.77866037559797,0.0,0.0,0.0,23.0,-8.75,-49.75
1762899131.2246377,-0.0003089578225920073,1.8924744120772963,-6.428586907315275,-0.32371190570970676,-1.1076268235224782,9.782435202676103,0.0,-0.002181661564992912,-0.001090830782496456,23.75,-8.75,-51.75
1762899131.489658,-0.0003089578225920073,1.8924744120772963,-6.428586907315275,-0.31712575846514207,-1.1001011320301266,9.77039129090813,0.0,-0.002181661564992912,0.0,23.375,-8.375,-49.25
1762899131.7514067,-0.0003089578225920073,1.8924744120772963,-6.428586907315275,-0.32354797476879893,-1.0933055047294558,9.79138847503087,-0.001090830782496456,0.0,-0.001090830782496456,23.75,-8.75,-50.5
1762899131.9981956,-0.0003089578225920073,1.8924744120772963,-6.428586907315275,-0.311764594761646,-1.0997431011768772,9.771045065332123,0.002181661564992912,-0.003272492347489368,-0.001090830782496456,23.375,-9.1875,-51.0
1762899132.2513893,0.42108555722827745,1.9029871992353409,-6.377675456349918,-0.32633734566686223,-1.102940619743863,9.77727198860107,-0.001090830782496456,-0.001090830782496456,0.0,23.75,-8.75,-50.5625
1762899132.5191224,-0.0003089578225920073,1.8924744120772963,-6.428586907315275,-0.31517396275824,-1.1008522853137153,9.796248344329168,-0.001090830782496456,0.001090830782496456,0.001090830782496456,23.75,-8.375,-51.25
1762899132.771392,-0.0003089578225920073,1.8924744120772963,-6.428586907315275,-0.3212010334938947,-1.1058254735571331,9.776246319344056,-0.002181661564992912,0.001090830782496456,-0.001090830782496456,24.0625,-8.375,-51.0
1762899133.0257516,-0.0003089578225920073,1.8924744120772963,-6.428586907315275,-0.3263055383896671,-1.104292254249084,9.77750574034977,-0.001090830782496456,0.002181661564992912,-0.002181661564992912,23.75,-8.375,-50.5625
1762899133.2829359,-0.0003089578225920073,1.8924744120772963,-6.428586907315275,-0.3111020249384822,-1.1081006840792587,9.784857673515557,0.0,0.0,-0.003272492347489368,23.0,-8.0,-51.0
1762899133.5333502,-0.008175789003092411,2.316719105853019,-5.641144015217522,-0.315734451650225,-1.103947289416462,9.779587192512684,0.0,-0.002181661564992912,-0.001090830782496456,23.375,-8.0,-51.0
1762899133.787819,-0.0003089578225920073,1.8924744120772963,-6.428586907315275,-0.31877141545614224,-1.1067009915762482,9.781795842472933,0.001090830782496456,-0.001090830782496456,0.0,23.375,-7.25,-51.0
1762899134.0435493,-0.0003089578225920073,1.8924744120772963,-6.428586907315275,-0.3250700917396058,-1.1014249657553576,9.786588030843173,0.0,-0.001090830782496456,-0.001090830782496456,23.75,-9.1875,-50.5625
1762899134.299664,-0.0003089578225920073,1.8924744120772963,-6.428586907315275,-0.3137751654262087,-1.109968608984533,9.779811883332782,0.0,0.003272492347489368,0.0,24.0625,-9.1875,-50.5625
1762899134.551566,-0.0003089578225920073,1.8924744120772963,-6.428586907315275,-0.32534143798213716,-1.103232501492467,9.780162644324097,0.0,-0.001090830782496456,0.001090830782496456,23.75,-8.0,-51.25
1762899134.8117182,-0.0003089578225920073,1.8924744120772963,-6.428586907315275,-0.32043295525339266,-1.096794575709092,9.775456071562042,0.001090830782496456,0.0,-0.002181661564992912,23.375,-8.75,-51.0
1762899135.0618398,-0.0003089578225920073,1.8924744120772963,-6.428586907315275,-0.30736126681063186,-1.093909081462728,9.784180981629914,0.0,0.0,0.0,23.75,-9.1875,-50.0625
1762899135.3118212,-0.0003089578225920073,1.8924744120772963,-6.428586907315275,-0.3151970024348148,-1.1015100430185765,9.773917622812283,-0.001090830782496456,0.003272492347489368,0.002181661564992912,24.0625,-8.75,-52.0625
1762899135.5605862,-0.0003089578225920073,1.8924744120772963,-6.428586907315275,-0.33112804997360035,-1.1028453186276421,9.787991415192618,0.0,0.001090830782496456,-0.002181661564992912,23.0,2040.0,-50.5625
1762899135.8060908,-0.0003089578225920073,1.8924744120772963,-6.428586907315275,-0.32140014081934104,-1.108531264938155,9.780406593219675,-0.001090830782496456,0.002181661564992912,0.0,24.5,-8.375,-51.25
1762899136.0548062,-0.0003089578225920073,1.8924744120772963,-6.428586907315275,-0.3199343800533118,-1.1037990625461132,9.782164461329002,0.0,0.002181661564992912,0.001090830782496456,23.75,-8.75,-49.75
1762899136.3144374,-0.0003089578225920073,1.8924744120772963,-6.428586907315275,-0.3226090432319661,-1.0946388715868334,9.78133817691768,-0.001090830782496456,0.0,-0.001090830782496456,23.75,-9.1875,-49.75
1762899136.5667577,-0.0003089578225920073,1.8924744120772963,-6.428586907315275,-0.30992085391949337,-1.1036830209179114,9.784099182947003,-0.001090830782496456,0.0,-0.001090830782496456,24.75,-8.375,-52.0625
1762899136.824616,-0.0003089578225920073,1.8924744120772963,-6.428586907315275,-0.30387123388179577,-1.0913072963074582,9.784825551071469,0.0,-0.001090830782496456,0.0,23.0,-8.375,-51.75
1762899137.0831397,-0.0003089578225920073,1.8924744120772963,-6.428586907315275,-0.3224929991829891,-1.1021210388991447,9.776811265087437,0.0,0.001090830782496456,0.001090830782496456,23.375,-8.375,-51.0
1762899137.3321006,-0.0003089578225920073,1.8924744120772963,-6.428586907315275,-0.33159150659308345,-1.1018873499692112,9.778504435298766,0.001090830782496456,0.002181661564992912,0.001090830782496456,23.375,-8.75,-51.0
1762899137.574234,-0.0003089578225920073,1.8924744120772963,-6.428586907315275,-0.3246281002905951,-1.1004871844737332,9.78878074340346,0.0,-0.001090830782496456,0.003272492347489368,22.5625,-9.1875,-51.75
1762899137.810627,-0.0003089578225920073,1.8924744120772963,-6.428586907315275,-0.3236433661862139,-1.0972223997687882,9.779173023916428,-0.001090830782496456,0.001090830782496456,0.0,23.75,-8.375,-51.25
1762899138.0626557,-0.0003089578225920073,1.8924744120772963,-6.428586907315275,-0.31961247558388234,-1.0889342061292888,9.778286159061011,0.001090830782496456,0.001090830782496456,0.001090830782496456,23.375,-9.5,-51.0
1762899138.3240395,-0.0003089578225920073,1.8924744120772963,-6.428586907315275,-0.3122175039966682,-1.0960048405921508,9.781796841335217,0.0,0.0,-0.002181661564992912,23.375,-8.75,-50.1875
1762899138.5813723,-0.0003089578225920073,1.8924744120772963,-6.428586907315275,-0.32103875853320346,-1.1056274843948601,9.773253789983704,0.001090830782496456,-0.002181661564992912,0.0,24.0625,-8.75,-49.75
1762899138.8419783,-0.0003089578225920073,1.8924744120772963,-6.428586907315275,-0.3212352684735903,-1.101842517262291,9.78191565288983,-0.001090830782496456,0.002181661564992912,-0.002181661564992912,23.375,-7.6875,-49.75
1762899139.099904,-0.0003089578225920073,1.8924744120772963,-6.428586907315275,-0.3251617548082746,-1.1083862591500395,9.788637642322161,0.0,0.0,-0.002181661564992912,23.375,-7.6875,-50.5625
1762899139.353557,-0.0003089578225920073,1.8924744120772963,-6.428586907315275,-0.31377139714419544,-1.1053156923704879,9.762765053607266,0.0,-0.001090830782496456,0.001090830782496456,22.5625,-7.6875,-51.25
1762899139.5983853,-0.0003089578225920073,1.8924744120772963,-6.428586907315275,-0.33176515596958445,-1.1043730445170337,9.775821320422846,-0.001090830782496456,0.0,0.0,24.0625,-8.375,-52.0625
1762899139.8526773,-0.0003089578225920073,1.8924744120772963,-6.428586907315275,-0.3258779636947447,-1.0929806070319616,9.77468662279799,0.0,-0.002181661564992912,-0.001090830782496456,23.75,-8.75,-50.5625
1762899140.1120584,-0.0003089578225920073,1.8924744120772963,-6.428586907315275,-0.31741683037240315,-1.1075376638895769,9.787481830912506,0.0,-0.003272492347489368,0.0,22.5625,-9.1875,-50.0625
1762899140.3644376,-0.0003089578225920073,1.8924744120772963,-6.428586907315275,-0.32715330523458336,-1.1002795587327656,9.768631686117955,0.0,0.0,0.0,23.375,-8.375,-51.0
1762899140.6345212,-0.0003089578225920073,1.8924744120772963,-6.428586907315275,-0.31720043562094047,-1.1016979916986933,9.78961545503576,0.13962634015954636,0.001090830782496456,0.0,23.0,-8.0,-50.5625
1762899140.9270446,-0.0003089578225920073,1.8924744120772963,-6.428586907315275,-0.32678404124783283,-1.104172015374005,9.776114956642548,0.001090830782496456,0.003272492347489368,0.001090830782496456,22.5625,-8.75,-51.75
1762899141.1919127,-0.0003089578225920073,1.8924744120772963,-6.428586907315275,-0.31474596381137354,-1.1062360706969905,9.77060033171842,0.001090830782496456,0.0,-0.002181661564992912,22.5625,-8.375,-50.5625
1762899141.4523501,0.42108555722827745,1.9029871992353409,-6.377675456349918,-0.3284651338877971,-1.097947455412838,9.78721451571679,0.0,-0.001090830782496456,0.0,22.5625,-8.75,-49.75
1762899141.7133405,-0.0003089578225920073,1.8924744120772963,-6.428586907315275,-0.3299701213098323,-1.0920040309884687,9.783485194738962,0.0,-0.001090830782496456,0.0,23.375,-8.75,-49.375
1762899141.9625182,-0.0003089578225920073,1.8924744120772963,-6.428586907315275,-0.31763009712193285,-1.089672710553107,9.780815831079483,0.001090830782496456,0.0,-0.003272492347489368,23.375,-8.375,-51.25
1762899142.2178137,-0.0003089578225920073,1.8924744120772963,-6.428586907315275,-0.30834475875890016,-1.1082311419476114,9.785348689967757,-0.001090830782496456,0.001090830782496456,0.0,23.375,-8.375,-51.0
1762899142.4821756,-0.0003089578225920073,1.8924744120772963,-6.428586907315275,-0.3219661718745441,-1.109607173463623,9.78327058765972,-0.002181661564992912,0.001090830782496456,0.0,23.375,-8.75,-50.0625
1762899142.7468078,-0.0003089578225920073,1.8924744120772963,-6.428586907315275,-0.3213866607466655,-1.1013130159034665,9.786105286111233,0.0,-0.001090830782496456,0.0,22.5625,-8.375,-50.5625
1762899142.99657,-0.0003089578225920073,1.8924744120772963,-6.428586907315275,-0.324905586821004,-1.0986063466623146,9.774201221812124,0.0,-0.001090830782496456,0.001090830782496456,24.5,-8.0,-51.0
1762899143.2581809,-0.0003089578225920073,1.8924744120772963,-6.428586907315275,-0.32232527518079174,-1.096099725703697,9.778657313095657,-0.001090830782496456,-0.001090830782496456,-0.002181661564992912,23.75,-8.375,-49.75
1762899143.5123394,-0.0003089578225920073,1.8924744120772963,-6.428586907315275,-0.3228922113073755,-1.09933489190787,9.770224506574257,-0.001090830782496456,-0.002181661564992912,0.0,23.0,-9.1875,-51.0
1762899143.7741852,-0.0003089578225920073,1.8924744120772963,-6.428586907315275,-0.3258670331153292,-1.1049638136530007,9.757100668337507,0.0,0.0,0.0,23.75,-8.375,-51.25
1762899144.0234804,-0.0003089578225920073,1.8924744120772963,-6.428586907315275,-0.32821845893764956,-1.1017599770975337,9.771566342495195,0.0,-0.001090830782496456,-0.001090830782496456,23.75,-8.0,-50.5625
1762899144.2716134,-0.0003089578225920073,1.8924744120772963,-6.428586907315275,-0.32659713214163916,-1.0970284085968942,9.789159730048768,0.0,-0.001090830782496456,0.0,23.375,-7.25,-51.0
1762899144.527979,-0.0003089578225920073,1.8924744120772963,-6.428586907315275,-0.32023521862149246,-1.1027367000542883,9.793157765277613,-0.001090830782496456,0.002181661564992912,0.0,23.75,-7.6875,-50.5625
1762899144.7872622,-0.0003089578225920073,1.8924744120772963,-6.428586907315275,-0.3163436002637751,-1.1022226344831296,9.786654174428215,0.002181661564992912,0.003272492347489368,-0.001090830782496456,23.75,-8.75,-50.5625
1762899145.0488355,-0.0003089578225920073,1.8924744120772963,-6.428586907315275,-0.314415447306966,-1.0978316937465182,9.780417476518998,-0.001090830782496456,0.002181661564992912,0.0,24.0625,-9.1875,-51.0
1762899145.3086867,-0.0003089578225920073,1.8924744120772963,-6.428586907315275,-0.3127636772008416,-1.1074766383429675,9.776005453143538,0.0,-0.001090830782496456,-0.001090830782496456,24.0625,-8.0,-51.375
1762899145.5640786,-0.0003089578225920073,1.8924744120772963,-6.428586907315275,-0.31708819690274836,-1.1112622759176973,9.780032028132,0.001090830782496456,0.001090830782496456,0.001090830782496456,23.375,-7.25,-50.5625
1762899145.8532228,-0.0003089578225920073,1.8924744120772963,-6.428586907315275,-0.33246942335245394,-1.1117579934630448,9.78883761496045,-0.001090830782496456,0.003272492347489368,-0.001090830782496456,23.375,-8.75,-50.5625
1762899146.1102016,102.14613440126128,-5.084076737933373,2.1109979784945607,-0.32750180553513963,-1.0976006851749105,9.786006437657862,0.0,-0.002181661564992912,0.0,24.5,-9.5,-50.0625
1762899146.3668835,-0.0003089578225920073,1.8924744120772963,-6.428586907315275,-0.33573857394193507,-1.1076834827105249,-11.722515462371836,0.0,-0.001090830782496456,-0.001090830782496456,23.0,-8.375,-51.0
1762899146.623825,-0.0003089578225920073,1.8924744120772963,-6.428586907315275,-0.325933249222029,-1.0896793479411762,8.962820931217552,-0.001090830782496456,0.0,-0.001090830782496456,23.75,-8.75,-50.5625
1762899146.8767452,-0.0003089578225920073,1.8924744120772963,-6.428586907315275,-0.31237771612309395,-1.0860516245602925,9.703592025308135,0.002181661564992912,-0.003272492347489368,-0.001090830782496456,23.75,-9.1875,-50.5625
1762899147.139013,-0.0003089578225920073,1.8924744120772963,-6.428586907315275,-0.3244099406952125,-1.0974901608228238,9.770506593377274,0.0,0.001090830782496456,0.0,22.5625,-7.25,-51.0
1762899147.3877263,-0.0003089578225920073,1.8924744120772963,-6.428586907315275,-0.3222064644835366,-1.0960756010305364,9.784620170591682,0.001090830782496456,0.001090830782496456,0.001090830782496456,23.0,-8.0,-49.75
1762899147.631351,-0.0003089578225920073,1.8924744120772963,-6.428586907315275,-0.32261087816562345,-1.105853763189114,9.782575083560781,0.0,0.003272492347489368,0.0,23.375,-9.1875,-50.1875
1762899147.8745444,-0.0003089578225920073,1.8924744120772963,-6.428586907315275,-0.3254406846701101,-1.099899497928698,9.791799423836771,0.0,0.001090830782496456,0.002181661564992912,23.75,-9.1875,-50.0625
1762899148.128505,-0.0003089578225920073,1.8924744120772963,-6.428586907315275,-0.3288659342779482,-1.1055952118490973,9.794209905967918,0.0,0.0,0.001090830782496456,23.375,-8.0,-50.1875
1762899148.3896036,-0.0003089578225920073,1.8924744120772963,-6.428586907315275,-0.31531021124155545,-1.0977380851193204,9.770189376070773,0.0,0.001090830782496456,0.002181661564992912,22.25,-8.375,-51.0
1762899148.6422107,-0.0003089578225920073,1.8924744120772963,-6.428586907315275,-0.31562849677310845,-1.1005188945432678,9.779659583573064,-0.001090830782496456,0.0,0.0,22.5625,-8.0,-50.0625
1762899148.9001799,-0.0003089578225920073,1.8924744120772963,-6.428586907315275,-0.32077456766674894,-1.1009272755637771,9.76710904371539,-0.001090830782496456,-0.001090830782496456,-0.001090830782496456,23.375,-8.75,-53.0
1762899149.1638558,-0.0003089578225920073,1.8924744120772963,-6.428586907315275,-0.32576141560320115,-1.0942446078333095,9.773661799127881,0.002181661564992912,0.002181661564992912,-0.001090830782496456,24.0625,-7.6875,-51.375
1762899149.4235423,-0.0003089578225920073,1.8924744120772963,-6.428586907315275,-0.32112848330974353,-1.088250813440306,9.78191077952983,0.0,0.0,0.0,23.375,-8.375,-50.5625
1762899149.6888888,-0.0717433879862974,1.8789922720796544,-6.432656202340962,-0.2949609600839814,-1.158570164217292,9.75518886171353,0.009817477042468103,0.006544984694978736,0.006544984694978736,24.5,-8.375,-50.1875
1762899149.9518907,1.498927427335909,1.9757345203926444,-6.450323565721645,-0.2980265051053684,-1.0707063924484443,9.493206297419905,-0.0545415391248228,-0.061086523819801536,0.5148721293383273,-18.0625,-27.75,-45.75
1762899150.2150328,22.82838898572599,3.54340295646978,-6.032849993729073,-0.18176882771482478,-0.7816569897506119,9.750112148053452,-0.013089969389957472,-0.0545415391248228,1.6220653735722301,-15.5625,-29.375,-44.0
1762899150.481302,45.827359596829226,5.061173111705692,-4.828647020927777,-0.09722262397911785,-0.6120068516497229,9.815982903735136,-0.02945243112740431,-0.07417649320975901,1.7715091907742444,9.0625,-21.1875,-39.25
1762899150.7437484,68.25422105240247,5.756322605880823,-3.1621405379046417,-1.0573549464039003,-1.2732073020884362,9.571569785307894,0.017453292519943295,-0.15489797111449674,1.1660981064887115,7.75,-22.25,-32.6875
1762899151.0518012,82.02113116998954,6.207624282766671,-2.164705164565883,31.776889175291622,-0.5505372136110478,9.60960065487042,-0.02945243112740431,0.00545415391248228,0.7853981633974483,4.0,-20.5625,-33.25
1762899151.3242815,86.0872182755085,6.2372359820067595,-1.7803503215373255,1.495654760299909,-0.9996520621225168,9.799741363248836,-0.006544984694978736,-0.018544123302439753,0.0,1.5,-20.6875,-32.25
1762899151.5918374,85.81279607872364,5.613398026567215,-2.441659787533185,-0.25047772050889244,-1.152063470202977,9.773327286091122,0.001090830782496456,0.006544984694978736,-0.002181661564992912,1.0625,-19.75,-33.375
1762899151.8562567,85.67949922760508,4.290020194287557,-3.984396594561207,-0.37993649103159843,-1.0669664922525306,9.789339799458272,-0.001090830782496456,-0.004363323129985824,0.001090830782496456,1.875,-21.0,-32.25
1762899152.1080632,85.63580983851013,3.6924051043893136,-4.668269821002538,-0.396739378692556,-1.0595317482049278,9.77013389925709,0.001090830782496456,-0.004363323129985824,0.003272492347489368,1.0625,-20.5625,-33.0
1762899152.3781898,85.61132815777196,3.3454255612497787,-5.062362157339795,-0.38505075229110103,-1.066786723309676,9.772958915021105,0.0,-0.003272492347489368,0.0,1.0625,-19.5,-32.6875
1762899152.638642,85.5939922696621,3.131241705626123,-5.298883051267148,-0.3432167141524997,-1.0716038454022336,9.768713502757182,-0.001090830782496456,-0.003272492347489368,0.003272492347489368,1.5,-20.1875,-33.375
1762899152.9027417,85.58276675463921,2.9862274891213687,-5.466694836180604,-0.3866125417054196,-1.0721375066325898,9.787889555709112,0.002181661564992912,0.004363323129985824,-0.003272492347489368,1.875,-20.1875,-32.6875
1762899153.1727836,85.57765332358002,2.896904368616142,-5.569357593039343,-0.4073319721935143,-1.053670437103684,9.755957385846926,-0.002181661564992912,-0.007635815477475192,0.003272492347489368,1.0625,-19.75,-33.375
1762899153.440282,85.57902889951886,2.8347094732460665,-5.635944787976999,-0.37352513134290644,-1.0787294750576688,9.776560980656722,-0.002181661564992912,0.001090830782496456,0.0,1.5,-20.1875,-33.0
1762899153.6922252,85.5734551474792,2.7739657601618304,-5.709549490094764,-0.38439871985864943,-1.0781643036824804,9.768857157066194,0.0,0.002181661564992912,-0.001090830782496456,1.875,-21.0,-33.0
1762899153.954857,85.56755901070419,2.730019567040592,-5.764372740459948,-0.4027363601871689,-1.0698701782283075,9.774302206630173,0.002181661564992912,0.0,0.001090830782496456,1.5,-21.0,-34.5625
1762899154.2205155,85.5684202374945,2.6913909007283836,-5.810428394076448,-0.3987889192721863,-1.0586626530661647,9.861795987224733,-0.001090830782496456,0.002181661564992912,-0.001090830782496456,1.0625,-19.5,-33.0
1762899154.4730337,85.56858687517287,2.676329180939745,-5.835968454187292,-0.3917823274871611,-1.0397589610500968,9.824102498466969,-0.001090830782496456,0.003272492347489368,-0.002181661564992912,1.5,-20.1875,-33.75
1762899154.7320714,85.56858687517287,2.676329180939745,-5.835968454187292,-0.3870440630699027,-1.0846792572136026,9.785172545463597,0.0,0.002181661564992912,0.0,1.5,-21.0,-33.0
1762899155.0029662,85.56858687517287,2.676329180939745,-5.835968454187292,-0.40511784533100387,-1.0696615216466936,9.800672347379567,0.001090830782496456,0.0,0.001090830782496456,2.1875,-21.25,-33.75
1762899155.2675776,85.56278914735677,2.6507171716671847,-5.849958678937912,-0.3620959441172805,-1.0675344262786621,9.813393199898204,-0.004363323129985824,-0.007635815477475192,0.0,0.375,-20.1875,-33.0
1762899155.511903,85.56303196435783,2.6306336936716197,-5.8840099166141435,-0.40159171656826537,-1.0825888591399553,9.780571797627301,-0.001090830782496456,0.0,0.001090830782496456,1.875,-19.75,-33.0
1762899155.7766318,85.5637757318545,2.607067862409841,-5.9045216600422945,-0.390820563668977,-1.0765172432587544,9.78548563717182,0.0,-0.001090830782496456,-0.002181661564992912,1.5,-21.0,-34.1875
1762899156.0483756,85.55901509672232,2.586917823563338,-5.939126106686807,-0.4061114230331948,-1.0783887532637544,9.77508705898485,-0.002181661564992912,-0.001090830782496456,0.0,1.5,-20.1875,-32.25
1762899156.3105946,85.55915236308596,2.576875439562974,-5.956151128144457,-0.39007233625317794,-1.06978672396567,9.781960403834022,-0.002181661564992912,-0.001090830782496456,0.001090830782496456,2.1875,-20.5625,-32.25
1762899156.5880954,85.55915236308596,2.576875439562974,-5.956151128144457,-0.41335708164057267,-1.0758859807897996,9.769326045867686,0.0,0.001090830782496456,0.001090830782496456,2.1875,-19.5,-32.25
1762899156.8565443,85.55915236308596,2.576875439562974,-5.956151128144457,-0.39153908742494553,-1.06583744560181,9.7753639333036,0.001090830782496456,0.0,0.0,1.5,-21.25,-33.0
1762899157.122139,85.55915236308596,2.576875439562974,-5.956151128144457,-0.3862615380197754,-1.0552975610114435,9.784434804690576,-0.001090830782496456,-0.003272492347489368,0.0,0.6875,-20.1875,-33.75
1762899157.3730912,85.55915236308596,2.576875439562974,-5.956151128144457,-0.3853810925502527,-1.0746087536100155,9.771711342388516,-0.001090830782496456,0.001090830782496456,0.0,1.0625,-19.75,-33.0
1762899157.624249,85.55915236308596,2.576875439562974,-5.956151128144457,-0.38484633997756956,-1.0561160985276727,9.768977196881895,0.0,-0.001090830782496456,0.001090830782496456,1.875,-19.75,-33.0
1762899157.8759048,85.55915236308596,2.576875439562974,-5.956151128144457,-0.39153120532989616,-1.07446195461104,9.785469393076841,-0.001090830782496456,0.001090830782496456,0.0,1.5,-21.0,-33.375
1762899158.1452553,85.55915236308596,2.576875439562974,-5.956151128144457,-0.39559468695886224,-1.0768847316747558,9.787464393738277,-0.001090830782496456,0.001090830782496456,-0.001090830782496456,1.5,-20.5625,-32.25
1762899158.4073997,85.55915236308596,2.576875439562974,-5.956151128144457,-0.3968795789055921,-1.0696478349006378,9.782733475465028,-0.001090830782496456,0.0,0.0,0.6875,-19.75,-33.75
1762899158.6557982,85.55915236308596,2.576875439562974,-5.956151128144457,-0.39247238933534034,-1.060104156375143,9.779985586356302,0.001090830782496456,-0.004363323129985824,0.0,1.875,-19.75,-34.1875
1762899158.9112556,85.55915236308596,2.576875439562974,-5.956151128144457,-0.39936008221782093,-1.0838264322624804,9.779406678120868,-0.001090830782496456,0.002181661564992912,-0.001090830782496456,1.0625,-20.1875,-33.75
1762899159.1730454,85.55915236308596,2.576875439562974,-5.956151128144457,-0.39286697931143,-1.0655172875759007,9.785500588784247,-0.001090830782496456,0.0,0.0,1.875,-20.1875,-33.375
1762899159.418906,85.55915236308596,2.576875439562974,-5.956151128144457,-0.3847812660399922,-1.0776371868869976,9.784861662192043,-0.001090830782496456,0.003272492347489368,0.0,2.1875,-21.25,-31.75
1762899159.6754887,85.55915236308596,2.576875439562974,-5.956151128144457,-0.39384897632703,-1.0721257862503135,9.781174018068487,-0.001090830782496456,-0.004363323129985824,0.002181661564992912,1.5,-19.75,-32.6875
1762899159.9286842,85.55915236308596,2.576875439562974,-5.956151128144457,-0.40397351312831636,-1.0711734729179012,9.77621994826178,0.002181661564992912,0.0,-0.001090830782496456,1.5,-20.1875,-33.75
1762899160.188284,85.55915236308596,2.576875439562974,-5.956151128144457,-0.3890046899471807,-1.0644822351179095,9.761044915078937,0.001090830782496456,-0.001090830782496456,-0.001090830782496456,1.875,-20.5625,-33.0
1762899160.4461966,85.55915236308596,2.576875439562974,-5.956151128144457,-0.40487651709390066,-1.0707843269669808,9.78311312278364,0.0,-0.001090830782496456,0.001090830782496456,1.875,-20.5625,-33.0
1762899160.7002375,85.55915236308596,2.576875439562974,-5.956151128144457,-0.3889613944952981,71.87197164567465,9.769019815911413,0.001090830782496456,0.004363323129985824,0.001090830782496456,1.875,-20.1875,-32.6875
1762899160.9675086,85.55915236308596,2.576875439562974,-5.956151128144457,-0.4101673436415619,3.1370161763124425,9.780508979954826,-0.001090830782496456,0.0,0.001090830782496456,2.1875,-20.1875,-34.1875
1762899161.260263,85.55915236308596,2.576875439562974,-5.956151128144457,-0.3880546422920528,-0.7041348739049204,9.783988656963379,0.002181661564992912,0.001090830782496456,0.001090830782496456,0.6875,-19.75,-33.75
1762899161.5125957,85.55915236308596,2.576875439562974,-5.956151128144457,-0.39240964027466163,-1.0558927743018787,9.772294215416203,0.001090830782496456,-0.002181661564992912,0.0,1.5,-19.75,-33.75
1762899161.75942,85.55915236308596,2.576875439562974,-5.956151128144457,-0.40099016159564294,-1.0790604451840724,9.785048227961646,0.0,0.001090830782496456,0.001090830782496456,1.875,-20.1875,-33.0
1762899162.0146675,85.55915236308596,2.576875439562974,-5.956151128144457,-0.39240694527283687,-1.0636141244488262,9.779822333464281,-0.001090830782496456,-0.001090830782496456,0.001090830782496456,1.5,-21.0,-33.375
1762899162.2833729,85.55915236308596,2.576875439562974,-5.956151128144457,-0.4002562428425894,-1.0656558046476596,9.774801979725192,-0.001090830782496456,0.0,0.002181661564992912,2.1875,-21.6875,-33.75
1762899162.554185,85.55915236308596,2.576875439562974,-5.956151128144457,-0.4012162248172267,-1.0828412255616338,9.789706584098573,0.0,0.003272492347489368,-0.001090830782496456,2.1875,-21.0,-33.5
1762899162.8188143,85.55915236308596,2.576875439562974,-5.956151128144457,-0.3858664455952674,-1.0740069438715338,9.786721562689037,0.0,0.002181661564992912,0.0,1.0625,-19.75,-33.375
1762899163.0796366,85.55915236308596,2.576875439562974,-5.956151128144457,-0.3917314092484495,-1.0728799766377077,9.785452588903272,-0.001090830782496456,0.002181661564992912,0.001090830782496456,1.5,-21.0,-33.75
1762899163.3443525,85.55915236308596,2.576875439562974,-5.956151128144457,-0.40124686006252347,-1.074872048085188,9.773798789494498,0.0,0.001090830782496456,-0.001090830782496456,1.0625,-20.1875,-33.0
1762899163.6005013,85.55915236308596,2.576875439562974,-5.956151128144457,-0.40598108466082605,-1.0602517004513046,9.786219166968605,-0.001090830782496456,-0.002181661564992912,-0.001090830782496456,1.5,-21.0,-33.375
1762899163.8548615,85.55915236308596,2.576875439562974,-5.956151128144457,-0.408839734006216,-1.0804200653249316,9.781081630858496,0.0,-0.002181661564992912,-0.002181661564992912,0.6875,-20.5625,-33.0
1762899164.1058998,85.55915236308596,2.576875439562974,-5.956151128144457,-0.3942602428695041,-1.0725471442435144,9.788025733488926,0.0,0.0,-0.001090830782496456,0.375,-20.1875,-33.0
1762899164.3714774,85.55915236308596,2.576875439562974,-5.956151128144457,-0.3858836900159069,-1.0747798346287805,-99.83886672985817,0.0,0.001090830782496456,-0.003272492347489368,1.875,-20.5625,-33.375
1762899164.6182513,85.55915236308596,2.576875439562974,-5.956151128144457,-0.39134454449206113,-1.0658080954397056,0.27072336664703833,0.002181661564992912,0.0,0.002181661564992912,0.375,-19.75,-33.75
1762899164.8654408,85.55915236308596,2.576875439562974,-5.956151128144457,-0.40052380532430976,-1.0711644850652828,8.956894113126815,0.001090830782496456,-0.001090830782496456,0.001090830782496456,2.5625,-20.1875,-32.6875
1762899165.123098,85.55915236308596,2.576875439562974,-5.956151128144457,-0.39584000120251445,-1.0681831076055712,9.716255769534294,-0.001090830782496456,0.0,-0.002181661564992912,1.5,-20.1875,-33.375
1762899165.3814929,85.55915236308596,2.576875439562974,-5.956151128144457,-0.38480773151231557,-1.0578072387629263,9.778884883531848,0.0,-0.002181661564992912,-0.002181661564992912,0.6875,-20.5625,-32.6875
1762899165.6454475,85.55915236308596,2.576875439562974,-5.956151128144457,-0.4005188509555424,-1.0761066455046187,9.782750163071324,-0.002181661564992912,-0.002181661564992912,0.0,1.0625,-20.5625,-33.75
1762899165.9022017,85.55915236308596,2.576875439562974,-5.956151128144457,-0.3944216358587319,-1.0871509877178993,9.779263773614613,-0.001090830782496456,-0.001090830782496456,0.002181661564992912,1.5,-19.75,-32.1875
1762899166.1919355,85.55915236308596,2.576875439562974,-5.956151128144457,-0.4077019362510023,-1.069971422579347,9.797770470186181,0.13962634015954636,-0.002181661564992912,-0.001090830782496456,9.5,-20.5625,-32.6875
1762899166.451871,85.55915236308596,2.576875439562974,-5.956151128144457,-0.400523674158679,-1.0700964773195811,9.772044629959208,0.0,0.002181661564992912,-0.001090830782496456,2.1875,-20.1875,-33.375
1762899166.7242367,85.55915236308596,2.576875439562974,-5.956151128144457,-0.38851756140386595,-1.071078985014567,9.768452285931508,0.0,0.001090830782496456,-0.001090830782496456,1.5,-20.5625,-33.75
1762899166.9842885,85.55915236308596,2.576875439562974,-5.956151128144457,-0.39321425705887747,-1.0706544566844087,9.780188318906267,0.001090830782496456,-0.001090830782496456,0.0,2.1875,-20.1875,-34.5625
1762899167.2404113,85.55915236308596,2.576875439562974,-5.956151128144457,-0.38531516751450207,-1.0657978142520899,9.783255853935493,0.0,-0.001090830782496456,0.0,1.5,-20.5625,-33.75
1762899167.4887211,85.55915236308596,2.576875439562974,-5.956151128144457,-0.4066160607415065,-1.0741085320763375,9.789558665043048,0.001090830782496456,0.001090830782496456,0.0,1.5,-21.0,-33.375
1762899167.7501953,85.55915236308596,2.576875439562974,-5.956151128144457,-0.38858226204180923,-1.0641322883912478,9.778458305626337,-0.001090830782496456,0.001090830782496456,-0.002181661564992912,1.5,-20.1875,-32.25
1762899168.0103288,85.55915236308596,2.576875439562974,-5.956151128144457,-0.3997498244849241,-1.0735425432440726,9.784799778111426,0.0,-0.001090830782496456,0.002181661564992912,1.875,-19.75,-33.0
1762899168.272227,85.55915236308596,2.576875439562974,-5.956151128144457,-0.4072018319725096,-1.0715605809313105,9.78528331815081,-0.001090830782496456,0.003272492347489368,0.002181661564992912,0.6875,-20.1875,-33.0
1762899168.5425894,85.55915236308596,2.576875439562974,-5.956151128144457,-0.4052596845823532,-1.0624749998964187,9.782109461271599,-0.001090830782496456,0.002181661564992912,-0.001090830782496456,0.6875,-21.0,-33.0
1762899168.798946,85.55915236308596,2.576875439562974,-5.956151128144457,-0.39938527517155065,-1.0712665605243943,9.770458719944637,-0.001090830782496456,0.002181661564992912,0.0,1.5,-20.1875,-33.375
1762899169.0549667,85.55915236308596,2.576875439562974,-5.956151128144457,-0.39497965814390246,-1.0818886901983917,9.786252456519984,0.0,0.001090830782496456,-0.001090830782496456,1.0625,-21.0,-34.1875
1762899169.31802,85.55915236308596,2.576875439562974,-5.956151128144457,-0.4114008165883984,-1.079589135094153,9.774843105308461,-0.001090830782496456,-0.001090830782496456,-0.002181661564992912,2.1875,-19.5,-34.1875
1762899169.5778434,85.55915236308596,2.576875439562974,-5.956151128144457,-0.39335194719709393,-1.0576127326556541,9.789783003450152,-0.001090830782496456,-0.001090830782496456,0.0,1.5,-20.1875,-33.0
1762899169.8346353,85.55915236308596,2.576875439562974,-5.956151128144457,-0.38447751061668234,-1.0643945960606807,9.78152159781391,-0.002181661564992912,-0.002181661564992912,0.001090830782496456,1.0625,-20.5625,-33.375
1762899170.0987325,85.55915236308596,2.576875439562974,-5.956151128144457,-0.38709194749876763,-1.0728762726933003,9.77950358867071,-0.001090830782496456,-0.002181661564992912,0.0,1.875,-21.0,-33.0
1762899170.3736696,85.55915236308596,2.576875439562974,-5.956151128144457,-0.40902349867122134,-1.0612455506127443,9.7839143369804,-0.001090830782496456,0.0,-0.002181661564992912,1.5,-20.1875,-32.1875
1762899170.640832,85.55915236308596,2.576875439562974,-5.956151128144457,-0.38843186619969344,-1.0803661927288284,9.787607526508584,-0.002181661564992912,0.002181661564992912,0.0,2.1875,-20.5625,-33.375
1762899170.9047828,85.55915236308596,2.576875439562974,-5.956151128144457,-0.4037353163086581,-1.0815701408955454,9.804034166268483,-0.001090830782496456,0.0,-0.002181661564992912,1.875,-20.1875,-33.0
1762899171.1783943,85.55915236308596,2.576875439562974,-5.956151128144457,-0.4074907701893549,-1.0811487168581801,9.775032686341492,-0.002181661564992912,-0.001090830782496456,0.002181661564992912,2.1875,-21.0,-33.75
1762899171.471837,85.55915236308596,2.576875439562974,-5.956151128144457,-0.3977610217680406,-1.0774812634584747,9.790352509333218,0.0,0.0,0.0,1.5,-20.5625,-33.375
1762899171.7290294,85.55915236308596,2.576875439562974,-5.956151128144457,-0.3924593731687844,-1.0529306260264848,9.787448450834166,0.001090830782496456,0.001090830782496456,-0.001090830782496456,1.875,-20.5625,-33.0
1762899171.9890182,85.58095313676918,2.54902226165029,-5.955629622344516,-0.26395409270257897,-1.0076374994340476,9.862342088376911,0.008726646259971648,0.009817477042468103,-0.02181661564992912,1.5,-21.25,-33.0
1762899172.2473571,85.56032395819659,2.5240732422154877,-5.947733233995942,-0.38285018901003415,-1.139380768972203,9.808406714250774,0.0,-0.007635815477475192,-0.01090830782496456,2.5625,-20.1875,-33.0
1762899172.5104074,85.55370255060392,2.513718103102042,-5.964996768734944,-0.4155655402267106,-1.091888532051508,9.789539677171597,0.003272492347489368,0.006544984694978736,0.0,1.5,-20.5625,-32.6875
1762899172.7718198,84.98333150856242,2.467292976696385,-6.053817400325562,-0.5307907006533454,-0.9358125984103024,9.980078473073696,-0.001090830782496456,-0.008726646259971648,-0.00545415391248228,2.1875,-20.5625,-33.375
1762899173.031891,85.08779840521822,2.408466003081089,-6.082486686136812,-0.4123097470869449,-1.043477678731721,9.790465809462708,-0.001090830782496456,-0.002181661564992912,0.003272492347489368,0.375,-19.75,-33.0
1762899173.2872493,85.10143825025393,2.404058438247582,-6.090509538636145,-0.3904948049968234,-1.0455779147751745,9.762106912487743,-0.003272492347489368,0.0,0.00545415391248228,1.5,-20.1875,-33.0
1762899173.5460176,85.09623628168944,2.400627572983835,-6.106333756204755,-0.4128215790285171,-1.0828468187533833,9.775499607859425,0.0,-0.002181661564992912,0.002181661564992912,1.875,-20.1875,-33.0
1762899173.810905,85.10978616938016,2.40127725291373,-6.105866016277439,-0.4089084967858458,-1.0944883186260175,9.78304092432394,-0.001090830782496456,-0.002181661564992912,0.013089969389957472,1.0625,-19.75,-32.25
1762899174.0782492,85.16750817885284,2.399293004253504,-6.113137245427575,-0.3985170938374182,-0.9448143732371105,9.802740050181628,-0.003272492347489368,-0.00545415391248228,0.016362461737446838,1.5,-21.6875,-33.375
1762899174.3394961,85.30606604202518,2.3712217592661102,-6.140992200048215,-0.47523611573499447,-1.4045236235108378,9.767117197486389,-0.004363323129985824,0.004363323129985824,0.004363323129985824,1.5,-19.75,-31.75
1762899174.6007907,85.29224638782019,2.363939307501452,-6.172000537307519,-0.36447605883397877,-1.1867298325802964,9.75730766821526,0.0,0.0,-0.011999138607461015,1.875,-21.0,-32.25
1762899174.8564503,84.5559718157862,2.3377897497153146,-6.183606030881791,-0.46476015309777496,-1.2093831192981912,-101.3901409898862,0.017453292519943295,-0.017453292519943295,-0.06981317007977318,2.5625,-20.5625,-31.5
1762899175.121179,79.56853645247895,1.501387721511876,-5.893108137146483,-0.23006846712240836,-0.7232391029161161,3.3813764962584907,0.00545415391248228,-0.011999138607461015,-0.47451139038595835,2.5625,-19.5,-33.0
1762899175.3795457,72.7991299872064,1.3686645371454482,-6.159892913119917,-0.43108056077522694,-1.0855722643829704,9.343367278875506,0.044724062082354694,0.11344640137963143,-0.5126904677733343,6.1875,-19.5,-34.5
1762899175.6420035,67.60902037063533,1.1656152931714756,-6.144250930176221,-0.5512095645621666,-0.12323401211787444,10.050189413497147,0.00545415391248228,-0.007635815477475192,0.018544123302439753,9.6875,-17.375,-35.0
1762899175.9085498,67.07453272888775,1.0851046901162649,-5.514332313766898,-0.46506557873272103,-1.1419012420468238,9.077400569548221,0.02181661564992912,-0.0272707695624114,-0.030543261909900768,11.25,-18.25,-30.0
1762899176.170591,65.06816095037198,0.964218695398551,-6.0539926105636885,0.19552896128014918,-0.6402842422128976,9.704241574680829,-0.04145156973486533,-0.06217735460229799,-0.09272061651219876,13.0625,-15.1875,-25.5
1762899176.4610982,64.39401630208773,-1.0278956565746875,-7.6408374749159185,1.1813305318409735,-1.8405885924170158,8.760217554651584,0.004363323129985824,0.1908953869368798,0.17235126363444003,18.1875,-7.6875,-25.0625
1762899176.7201858,65.7712098169137,1.8318617342454049,-5.201658540565236,-2.430077758027089,-0.24848027950399604,13.968561672234397,0.10035643198967395,-0.16580627893946132,0.05781403147231216,22.1875,-3.25,-27.875
1762899176.9921947,65.47215077758464,3.1537956570787475,-4.421924263774457,-1.528121018666862,-0.40882366239359813,10.675140094882096,0.35561083509384467,-0.2683443724941282,-0.2279836335417593,25.75,7.5,-31.75
1762899177.2549524,63.889901466822934,0.26726752998149417,-5.690157047362908,-0.7522535873082181,-0.5336428083462061,14.26806963992552,-0.9272061651219876,-0.3239767424014474,-0.24980024919168842,25.25,14.25,-29.1875
1762899177.5006406,63.80673776058703,0.8538219625662152,-7.028977593263513,-0.7627595218211415,-1.982652870468424,8.44734874272504,-0.18871372537188688,0.19853120241435498,0.17453292519943295,21.5625,42.5625,-63.5625
1762899177.7564776,71.34886894872791,1.3198390605862174,-6.780138175719104,0.3976108072398196,-1.9014217099715292,9.692039775010679,0.272707695624114,0.2650718801466388,0.7341291166201148,20.1875,44.75,-99.375
1762899178.0093215,78.10746240737456,1.4400355522630621,-6.208664157585945,47.95821930179926,-0.8375458476267732,10.396121423930081,-0.06763150851478027,0.07963064712224129,0.35779249665883756,20.0,36.6875,-121.5625
1762899178.2553134,82.34061950073601,1.8201884483946487,-6.311029287285707,3.2275320862240413,-1.2806059331654795,10.875118328387831,0.01090830782496456,0.0545415391248228,0.17016960206944712,18.875,28.75,-134.5625
1762899178.6367342,82.27877188908055,1.7712415035234605,-6.207378282286154,0.31639105810936924,-1.3073458857901206,9.78604612752666,0.009817477042468103,0.018544123302439753,-0.011999138607461015,19.6875,27.75,-134.75
1762899178.901722,82.24036206323233,1.820087542696288,-6.210771849782046,-0.398345034239677,-1.108464315333028,9.809757575593405,-0.022907446432425576,0.00545415391248228,-0.003272492347489368,19.75,26.6875,-134.375
1762899179.1718335,82.00197051712537,1.8328840587704525,-6.201388005271655,-0.3212736895210758,-1.0455671139531972,9.77082728353152,0.006544984694978736,0.001090830782496456,0.002181661564992912,19.5,26.875,-134.0625
1762899179.4354446,81.97935600005893,1.844944673103764,-6.292110453839721,-0.29080932057967673,-1.0942562566611074,9.736012606941832,0.001090830782496456,0.004363323129985824,-0.00545415391248228,20.1875,26.875,-135.0625
1762899179.6984978,81.96513994555215,1.8488361705992564,-6.312948299586378,-0.3349296285655943,-1.1228742727566903,9.790888318429442,0.0,0.001090830782496456,-0.006544984694978736,19.75,26.875,-134.6875
1762899179.961335,81.9645549431963,1.8534266809618278,-6.333397370479674,-0.3140111538952664,-1.13539645904984,9.773312712506476,-0.001090830782496456,-0.001090830782496456,0.0,20.1875,26.875,-135.0625
1762899180.2352154,81.96416403697081,1.856486851526556,-6.347029901076741,-0.32620303928691496,-1.1382077198167013,9.771983651607114,-0.002181661564992912,0.0,0.001090830782496456,19.0625,28.0625,-135.875
1762899180.49343,81.96396831248339,1.8580168858084618,-6.3538461112534375,-0.3266128994927003,-1.1417410971371624,9.772632010375842,-0.001090830782496456,-0.001090830782496456,0.0,20.1875,27.25,-134.6875
1762899180.7601123,81.96396831248339,1.8580168858084618,-6.3538461112534375,-0.33249773144891726,-1.1338021986706543,9.777593495615044,0.0,-0.001090830782496456,0.0,20.1875,26.875,-135.5
1762899181.027564,81.96396831248339,1.8580168858084618,-6.3538461112534375,-0.33675169307254194,-1.1363082688036612,9.782254733790776,0.001090830782496456,-0.001090830782496456,-0.001090830782496456,19.0625,28.375,-135.0625
1762899181.2949097,81.96396831248339,1.8580168858084618,-6.3538461112534375,-0.3346275760042915,-0.7558987475064634,6.498612838651594,0.001090830782496456,0.0,0.0,19.5,27.25,-135.0625
1762899181.556506,81.96396831248339,1.8580168858084618,-6.3538461112534375,-0.33591442422596357,-1.1072958257225483,9.586805037096179,0.0,0.002181661564992912,0.001090830782496456,20.1875,26.875,-135.5
1762899181.8156493,81.96396831248339,1.8580168858084618,-6.3538461112534375,-0.31883112122999163,-1.1313772836537255,9.776693051778919,0.0,-0.001090830782496456,0.002181661564992912,19.5,27.25,-134.75
1762899182.0763748,81.96396831248339,1.8580168858084618,-6.3538461112534375,-0.31593363384904183,-1.1365241255417693,9.784394358468875,0.001090830782496456,-0.001090830782496456,0.0,20.1875,28.0625,-135.875
1762899182.3353338,81.96396831248339,1.8580168858084618,-6.3538461112534375,-0.3353707833848185,-1.1295350431964077,9.783190292005813,0.0,0.002181661564992912,0.0,20.1875,27.25,-135.5
1762899182.6026437,81.96396831248339,1.8580168858084618,-6.3538461112534375,-0.3282819033133335,-1.1337989062139657,9.778782649359265,0.0,0.001090830782496456,-0.001090830782496456,20.5625,27.6875,-135.75
1762899182.8729234,81.96396831248339,1.8580168858084618,-6.3538461112534375,-0.3168725704726628,-1.1396668583022271,9.778196300913793,0.0,-0.003272492347489368,0.002181661564992912,19.5,26.5625,-135.75
1762899183.141551,81.96396831248339,1.8580168858084618,-6.3538461112534375,-0.3341198255819216,-1.1440247604786853,9.771974592256836,0.0,0.001090830782496456,0.001090830782496456,19.5,27.6875,-134.6875
1762899183.4027638,81.96396831248339,1.8580168858084618,-6.3538461112534375,-0.32425563988820894,-1.140581620776071,9.775882879617738,0.0,0.0,-0.003272492347489368,18.6875,27.25,-135.0625
1762899183.6573856,81.96396831248339,1.8580168858084618,-6.3538461112534375,-0.3203251502155745,-1.1383003605416415,9.776896742134271,-0.002181661564992912,-0.001090830782496456,0.0,19.75,27.25,-135.875
1762899183.915597,81.96396831248339,1.8580168858084618,-6.3538461112534375,-0.32391638170833925,-1.135892433012857,9.772637899564415,0.0,-0.002181661564992912,0.0,19.5,26.875,-135.0625
1762899184.1639705,81.96396831248339,1.8580168858084618,-6.3538461112534375,-0.32630662868566496,-1.1350086306695997,9.786886953391033,-0.002181661564992912,0.0,0.001090830782496456,19.5,27.25,-134.6875
1762899184.4336119,81.96396831248339,1.8580168858084618,-6.3538461112534375,-0.3334477835572435,-1.1179769546530152,9.78342707418809,0.001090830782496456,0.002181661564992912,0.001090830782496456,20.5625,27.25,-135.75
1762899184.6921442,81.96396831248339,1.8580168858084618,-6.3538461112534375,-0.3255302939439387,-1.1325886097665352,9.777142663355857,-0.001090830782496456,-0.002181661564992912,-0.002181661564992912,19.5,18.875,-134.6875
1762899184.950758,81.96396831248339,1.8580168858084618,-6.3538461112534375,-0.32211637570852825,-1.1338511303856023,9.782635057479233,0.0,-0.002181661564992912,0.002181661564992912,18.25,27.25,-135.0625
1762899185.2116344,81.96396831248339,1.8580168858084618,-6.3538461112534375,-0.3209062311998424,-1.1281985931917895,-38.77414471205063,-0.001090830782496456,0.001090830782496456,0.001090830782496456,19.5,27.6875,-135.5
1762899185.4752002,81.96396831248339,1.8580168858084618,-6.3538461112534375,-0.32134848163926416,-1.1410887692699294,7.908096799192046,-0.003272492347489368,-0.001090830782496456,-0.004363323129985824,19.5,27.6875,-135.875
1762899185.7365766,81.96396831248339,1.8580168858084618,-6.3538461112534375,-0.3153530036165379,-1.1272762888860859,9.670785107614623,0.0,0.0,0.002181661564992912,19.75,27.25,-135.5
1762899185.9884422,81.96396831248339,1.8580168858084618,-6.3538461112534375,-0.31123645787095866,-1.1339206781516347,9.772653697034553,0.001090830782496456,0.002181661564992912,-0.003272492347489368,19.75,26.875,-134.6875
1762899186.2478068,81.96396831248339,1.8580168858084618,-6.3538461112534375,-0.31496483473910136,-1.1312230149523643,9.769801224599428,0.001090830782496456,0.001090830782496456,-0.004363323129985824,19.75,27.25,-134.6875
1762899186.5367765,81.96396831248339,1.8580168858084618,-6.3538461112534375,-0.3385360300995257,-1.1247361357379524,9.78470576871169,0.001090830782496456,0.0,0.001090830782496456,28.1875,26.875,-135.0625
1762899186.7819226,81.96396831248339,1.8580168858084618,-6.3538461112534375,-0.32750697056580963,-1.1273271644945753,9.79024247262708,0.001090830782496456,0.001090830782496456,-0.001090830782496456,20.1875,28.0625,-134.75
1762899187.0452611,81.83621555623186,1.8304320230489675,-6.36051913667887,-0.3321359702688807,-1.2005558515110897,9.766237062091063,0.002181661564992912,0.003272492347489368,-0.03490658503988659,19.5,26.875,-135.0625
1762899187.3005147,81.17381648891194,1.7526186056953421,-6.38015297288682,-0.35947389572241345,-1.1724184165640013,9.739488517910555,-0.002181661564992912,-0.006544984694978736,-0.07635815477475191,19.75,27.6875,-132.75
1762899187.554602,79.1202999373201,1.4455756631862382,-6.591391457460824,-0.46419905327287714,-1.5373286194447637,9.992596420155083,0.016362461737446838,0.007635815477475192,-0.22362031041177347,20.5625,28.375,-131.1875
1762899187.8130968,73.6855604390046,-1.1663667740742505,-6.545250836052172,-0.3644818879614341,-0.9655419995386566,9.940532162029388,0.007635815477475192,-0.24870941840919197,-0.47669305195095124,20.1875,31.25,-122.875
1762899188.0712438,68.18268934662663,-3.973749686156678,-6.549373294484092,0.6335362544781522,-1.0200379638104982,9.593152173113918,-0.014180800172453928,-0.0545415391248228,-0.30870511144649704,15.5,34.1875,-112.0
1762899188.3330753,61.35034137876537,-5.3691593357278515,-6.430388244979066,0.9509627352467529,-1.105480927880772,9.613600698597999,-0.020725784867432664,0.02399827721492203,-0.4930555136883981,14.375,34.5625,-98.25
1762899188.5982502,56.70773884961314,-1.4932224098524722,-2.807224648614583,-0.4305988198234303,-0.9550836731432445,10.032597780765178,0.35561083509384467,0.11780972450961724,-0.17998707911191522,14.875,32.875,-92.75
1762899188.8563206,56.314896861910505,1.252066280167043,0.0464452103879177,-0.06549175686561703,-1.1514182690326402,9.029307582851239,-0.001090830782496456,0.3687008044838021,0.284706834231575,19.6875,24.375,-80.5
1762899189.1161282,60.01031850195637,0.22425252362212184,-2.785360901431075,-1.2066913374027104,-0.02680802400954907,10.391741552714318,0.210530341021816,-0.04581489286485115,0.08290313946973066,28.1875,15.0,-55.0625
1762899189.376653,61.6565949138805,1.563115355987518,-4.097265142502503,-0.9718116973758091,-0.06035723687298289,8.528084175838464,0.19744037163185854,0.48105637508093707,0.19962203319685143,28.1875,2.5625,-41.75
1762899189.642153,62.512333355789536,-1.5776795898772003,-6.739888193638184,0.382348119029533,-1.9569290031872422,9.919378074020903,-0.10253809355466686,-0.09708393964218458,0.05999569303730508,26.375,-8.375,-33.0
1762899189.904267,65.62603524479674,0.6359130936783423,-6.232102107135792,-0.3131881264747221,-0.1703101788585158,8.917771159752888,0.1538071403320003,-0.1341721862470641,0.33815754257390135,22.6875,-13.375,-28.875
1762899190.171868,65.77693853182532,1.5896557465529892,-6.450858262472211,-0.4202698747847684,-0.48532345474122685,9.890165189739909,0.028361600344907856,0.06435901616729091,0.01090830782496456,20.25,-17.25,-32.25
1762899190.4376297,67.02482770162199,0.6518421352058247,-8.474752527476271,0.7491348125819972,-2.4242980239871414,9.167988680489817,0.020725784867432664,-0.009817477042468103,0.14944381720201447,17.6875,-17.75,-33.75
1762899190.7034028,70.66903453562354,1.2335058589536587,-6.871477181567231,-0.8671705074897631,-0.226204375391014,10.579835941424278,-0.031634092692397225,0.08944812416470939,0.34579335805137656,16.0,-19.75,-35.75
1762899190.959206,74.92459695183194,1.7162923871963984,-6.784374922820404,-0.7462383724262276,-0.1316304276030637,9.996688687929922,0.002181661564992912,0.013089969389957472,0.08835729338221293,13.375,-21.0625,-40.1875
1762899191.2191296,75.33165417068064,1.7852458336440156,-6.791864099761919,-0.4595378010878885,-1.1445989180970202,9.702659834711485,0.001090830782496456,0.008726646259971648,0.031634092692397225,11.875,-19.5625,-40.5625
1762899191.482052,76.08897762266278,1.85512226776733,-6.718913140148057,-0.33050742039459347,-1.091311874534958,-100.1434619187215,-0.002181661564992912,0.003272492347489368,0.007635815477475192,10.875,-20.75,-39.0
1762899191.764382,76.0742167014776,1.8783455767062711,-6.69390785949881,-0.44453506753897704,-0.8966452012045022,0.375966741471931,-0.002181661564992912,-0.007635815477475192,-0.003272492347489368,10.875,-20.75,-40.875
1762899192.0168116,76.07108751948721,1.9261492772741395,-6.642792452984171,-0.4247196069480945,-1.0319645005842484,9.256484789029534,-0.001090830782496456,0.003272492347489368,-0.008726646259971648,11.25,-21.5625,-41.25
1762899192.289543,76.06304167041654,1.9645277382506008,-6.579650936624554,-0.40587875969402415,-0.9927116297661825,9.751530550643874,0.0,0.003272492347489368,0.007635815477475192,11.5625,-20.0625,-40.875
1762899192.5493338,76.07494835948428,2.013267299477381,-6.528539447976188,-0.40249332745790234,-1.1405947566597765,9.777163353119997,0.0,0.0,-0.002181661564992912,11.5625,-20.375,-39.375
1762899192.8027625,76.07345364868803,2.0362668485438697,-6.5387778982422615,-0.4234595333566574,-1.0720315509224383,9.774676626627627,0.001090830782496456,0.0,0.001090830782496456,10.5,-20.0625,-40.0625
1762899193.0718577,76.07345364868803,2.0362668485438697,-6.5387778982422615,-0.4221128849271329,-1.0566649273473747,9.796509402848082,0.0,0.002181661564992912,-0.001090830782496456,11.25,-21.1875,-39.375
1762899193.3274138,76.07345364868803,2.0362668485438697,-6.5387778982422615,-0.40452086704172585,-1.055525404465806,9.797866369306975,-0.002181661564992912,-0.001090830782496456,0.002181661564992912,11.25,-21.1875,-39.0
1762899193.581579,76.07345364868803,2.0362668485438697,-6.5387778982422615,-0.40970330543856714,-1.055103086016915,9.786303654108112,-0.001090830782496456,0.001090830782496456,0.002181661564992912,10.5,-20.75,-39.6875
1762899193.8382623,76.07345364868803,2.0362668485438697,-6.5387778982422615,-0.41404504632646105,-1.0820765043440814,9.778493979081706,0.0,0.001090830782496456,0.0,11.5625,-20.375,-40.875
1762899194.0965633,60.98484793704493,-7.790076076367429,125.94643721903833,-0.40245972850116846,-1.0625452210443045,9.783408631840173,0.002181661564992912,0.0,0.001090830782496456,10.875,-20.375,-40.0625
1762899194.3558595,76.06460425980518,2.0932114400355277,-6.336993423606837,-0.4780806564439175,-0.8816239632665934,9.84242527141214,-0.007635815477475192,-0.01090830782496456,-0.01090830782496456,11.875,-20.75,-39.6875
1762899194.6160064,74.5747885921529,1.9501098808303072,-6.295406986308666,-0.5966356060962029,-1.1405844664340365,9.81151316235646,-0.016362461737446838,-0.014180800172453928,-0.19525871006686563,12.25,-21.1875,-39.375
1762899194.8758695,72.91820238901002,1.756859605179776,-6.400895904849434,-0.2605301333429609,-1.4130889609618904,9.672198148528109,0.006544984694978736,0.003272492347489368,-0.02945243112740431,13.0625,-19.25,-38.5625
1762899195.147533,73.1241852011518,1.8588195609769322,-6.48365845883411,-0.2414082759509353,-1.0228399576373808,9.809044425586142,0.008726646259971648,0.02399827721492203,-0.002181661564992912,13.75,-20.375,-38.5625
1762899195.422968,73.14367827431559,1.901572740074445,-6.477513877537102,-0.3456116232420384,-1.1467306769957208,9.773980701654159,0.001090830782496456,-0.001090830782496456,0.00545415391248228,13.0625,-20.75,-37.375
1762899195.6990888,73.24714326012565,1.9489808031973677,-6.4696319805035305,-0.35801396010197517,-1.0593192463517391,9.815586353860263,0.002181661564992912,0.006544984694978736,0.0272707695624114,13.0625,-21.1875,-37.375
1762899195.96045,73.61372381697814,2.0121796855260174,-6.322526604852165,-0.2515717035340447,-0.9995545182859649,9.773710667043877,-0.003272492347489368,0.0,0.05672320068981571,13.375,-20.375,-38.1875
1762899196.223841,82.21301973303306,2.659348908480504,-6.149725923274498,-0.09319179106915479,-0.8015083001277268,9.845469335940992,-0.032724923474893676,-0.022907446432425576,1.0897399517139594,13.75,-20.75,-37.375
1762899196.471704,100.71332387656382,4.1298381257554455,-5.426985610561164,-0.390894871304036,-0.9213047437843389,9.755334429541614,-0.038179077387375956,-0.044724062082354694,1.2904528156933075,6.5625,-22.5625,-36.5
1762899196.766138,116.75897173930568,5.15171692743386,-4.516404920984081,-1.08502063057979,-1.366836255997481,10.060615427561878,-0.009817477042468103,-0.001090830782496456,0.41233403578366035,1.5625,-23.1875,-34.875
1762899197.0281951,117.53263679839989,4.90714888456451,-4.635082985157271,-0.4318521660862086,-1.0667929606656597,9.737678393147052,0.0,-0.009817477042468103,0.011999138607461015,0.875,-30.1875,-36.0
1762899197.2903998,117.61866847762187,4.362246052079541,-4.913505248364842,-0.3819334184862119,-1.001561171294326,9.785146615823795,0.007635815477475192,0.01090830782496456,0.006544984694978736,0.5,-21.75,-35.1875
1762899197.5549674,120.96594485493361,4.419766696683374,-4.729596717279916,0.5517659441043273,-0.8530713868448854,9.015194845656746,-0.02399827721492203,-0.014180800172453928,0.8323038870447959,1.1875,-22.875,-35.6875
1762899197.8202322,131.23974281874507,4.47198516339937,-3.8875976813938387,-0.2795116832591816,-0.6051228007466962,9.685814845009535,0.008726646259971648,0.002181661564992912,0.8148505945248526,-2.5,-22.25,-33.5625
1762899198.0881438,146.20066133590004,5.613044080535709,-3.0871203062464962,-1.0233086137027014,-0.6606671594073844,9.387220682407307,-0.022907446432425576,-0.03381575425739013,1.050470043544087,-4.5625,-21.875,-31.25
1762899198.348223,159.526639528377,5.91080838750377,-2.093340510679327,0.04883422989206683,-1.0986904204697043,9.888119687965366,-0.02945243112740431,-0.001090830782496456,0.8792096106921435,-9.5,-20.0625,-30.5
1762899198.6086469,170.10267146368915,5.947917760866626,-1.5461079316957214,-0.5270333166515142,-1.1877106820550027,9.845777056038415,-0.022907446432425576,-0.01090830782496456,0.5868669609830933,-13.75,-18.6875,-26.6875
1762899198.872377,173.37645880211906,5.665866860701108,-1.6611940271357681,-0.5250216876280888,-0.9784858110876187,9.728936139493554,0.002181661564992912,0.003272492347489368,0.008726646259971648,-14.6875,-18.875,-26.25
1762899199.1292114,173.2597826855048,4.13962712739681,-3.381780874501687,-0.40750371470072666,-0.9356225583803791,9.796421910987185,-0.003272492347489368,0.001090830782496456,0.0,-13.5625,-18.875,-27.5
1762899199.3839183,173.2160328359407,3.563116768782443,-4.022916031539901,-0.38555907793548533,-0.9499094039595628,9.800332733264348,0.001090830782496456,-0.003272492347489368,0.00545415391248228,-14.375,-18.1875,-26.6875
1762899199.6376925,173.19744392770704,3.286337041520606,-4.338058737649769,-0.3683192274568301,-0.938657940003628,9.79576695711753,-0.002181661564992912,-0.002181661564992912,0.001090830782496456,-13.5625,-18.1875,-27.5
1762899199.9030979,173.18355645998489,3.08013427063307,-4.5648647502902024,-0.36923252821404917,-0.93310821862915,9.785038220951934,0.0,0.001090830782496456,0.002181661564992912,-14.375,-19.1875,-26.25
1762899200.1801085,175.33308460469473,2.7217265508710113,-4.609687071524746,-0.06152283213130311,-0.8731722296155233,9.771982938299143,-0.011999138607461015,-0.016362461737446838,0.3719732968312915,-13.25,-18.75,-27.0625
1762899200.4635856,-176.46216134511747,2.969315494275242,-4.443982663327744,-0.7731042136158005,-1.0481419194710089,9.67602300804878,-0.002181661564992912,-0.008726646259971648,0.3097959422289935,-15.6875,-17.5625,-24.375
1762899200.723325,-176.2394813113806,2.890888670345878,-4.551369425215179,-0.42215522982882947,-0.9193491148144036,9.777608898871101,-0.001090830782496456,-0.002181661564992912,-0.00545415391248228,-17.0,-16.6875,-22.875
1762899200.9891498,-176.24481055023557,2.784598839642878,-4.6861234407540495,-0.39205609686562254,-0.9282785466051171,9.790075575579783,0.001090830782496456,-0.002181661564992912,0.001090830782496456,-17.375,-17.0625,-23.25
1762899201.265432,-176.26263459271652,2.6998213978467582,-4.793340358039033,-0.3643682043173247,-0.9333027187139339,9.788320041550552,0.0,-0.002181661564992912,-0.002181661564992912,-16.5625,-16.6875,-24.5
1762899201.527695,-176.39732570080028,2.6505940888675914,-4.884254195361529,-0.47310650100850604,-0.9590924269276462,9.785473962860923,0.004363323129985824,0.004363323129985824,-0.05126904677733343,-16.25,-17.0625,-24.875
1762899201.8315477,-179.6076325948343,2.494624407307451,-5.049829626257197,-0.5813760820336481,-0.773192744627875,10.034852478510045,0.002181661564992912,0.004363323129985824,-0.36324665057131983,-15.5,-17.0625,-23.6875
1762899202.1055841,177.46277306917807,2.218137146672314,-5.157445350176781,-0.40484000889004845,-0.9596061393831722,9.823131367697526,-0.002181661564992912,-0.004363323129985824,0.001090830782496456,-14.0,-18.1875,-24.5
1762899202.3718493,177.47811793557702,2.2180328352454683,-5.17279021657573,-0.3646201510744163,-0.9330237724461947,9.810152982095241,-0.001090830782496456,-0.003272492347489368,0.004363323129985824,-14.25,-17.875,-26.5
1762899202.6266112,177.47750995320868,2.2232851325971024,-5.191852037075974,-0.3909358249733782,-0.9375994985543491,9.803878066793475,0.0,-0.001090830782496456,0.003272492347489368,-14.25,-17.875,-24.875
1762899202.884279,-132.50902527210545,24.25926746530583,130.42298787759907,-0.38281565667897677,-0.9321965197404541,9.79512811232355,0.0,-0.001090830782496456,0.006544984694978736,-13.5625,-17.5,-26.375
1762899203.1531653,177.47256991230626,2.232926485120494,-5.245930658882779,-0.4163302843881783,-1.0297686134765676,9.812218251224154,-0.001090830782496456,-0.004363323129985824,-0.01090830782496456,-15.0625,-18.1875,-26.375
1762899203.4184053,176.582569235127,2.121110908461098,-5.456423466900425,-0.57768392119788,-1.0387419508987874,9.505315924388844,0.019634954084936207,0.0272707695624114,-0.21162117180431245,-13.5625,-18.5625,-26.375
1762899203.6971958,166.92066690874086,1.673564844130145,-5.390159752637352,-0.507301383542434,-0.8080688753785998,9.990716498555635,0.031634092692397225,0.025089107997418487,-1.0461067204141012,-12.875,-18.875,-26.875
1762899203.9634197,151.16563064526866,0.32357716995708263,-5.314787311986829,-0.5765235941699547,-1.7049404575747131,9.730272359998473,0.09381144729469522,0.013089969389957472,-0.8257589023498172,-7.1875,-20.6875,-27.5625
1762899204.2358851,149.34832940252244,0.4192601155343665,-5.190823069422802,-0.19527800591667982,-0.4550722285310357,9.931067025033686,0.004363323129985824,0.014180800172453928,0.07090400086226964,-4.0625,-21.25,-30.25
1762899204.4947684,149.43678391517136,0.43315901180652333,-5.190148435855994,-0.30574417772631485,-0.9669600876631762,9.835419445669189,-0.017453292519943295,-0.0272707695624114,-0.003272492347489368,-4.5,-20.1875,-30.6875
1762899204.7583437,146.60319649929377,0.4778094419312384,-5.085414460523392,-0.8079633447782333,-1.4534713210476227,9.453280249638473,0.015271630954950384,0.022907446432425576,-0.7984881327874057,-3.6875,-20.1875,-31.0625
1762899205.0190458,127.17437714797617,-1.0085623522551637,-4.49510887790417,-0.7723019108738359,-0.3471870464373582,9.680777810133833,-0.0719948316447661,-0.09381144729469522,-1.1366456753613072,0.25,-21.6875,-29.5
1762899205.2815802,118.15646918199623,-1.4984457217461706,-4.086167495426969,-0.2981446961730256,-0.7997935027953159,10.105287923176666,0.011999138607461015,0.008726646259971648,-0.5421428989007386,4.6875,-20.6875,-30.25
1762899205.539276,112.70009032379431,-1.5335039918316564,-3.8150105849379647,-0.36985804709082193,-0.7215753000796641,9.728659561734409,-0.025089107997418487,-0.06763150851478027,0.11453723216212788,7.875,-21.25,-29.875
1762899205.7973611,113.20842119817974,-0.9178180413443985,-4.150622393519685,-0.45418467299367377,-0.9647215709676884,9.855064108468538,0.004363323129985824,0.002181661564992912,0.008726646259971648,7.1875,-21.1875,-30.25
1762899206.0577073,112.39031753067701,-0.19753483432663266,-4.213870200315365,-0.21929885096506826,-1.426273396649793,9.50343464267,0.018544123302439753,0.06654067773228381,-0.25416357232167425,8.25,-21.1875,-29.5
1762899206.3273685,100.72432109049863,-0.6435831587322307,-3.809426153622796,-0.11955936248984322,-1.348042973987281,9.33136117445777,0.016362461737446838,-0.015271630954950384,-1.1824605682261582,9.5625,-21.1875,-29.5
1762899206.5882578,86.96327975150265,-0.946289301071439,-3.1060617552328798,-0.39313763398100615,-0.6986993608027113,9.468936094952708,0.011999138607461015,0.014180800172453928,-0.5792311455056182,13.5625,-18.375,-31.0
1762899206.8501663,86.56127471730339,-0.9683141479001136,-3.2506694361087822,-0.5071935475496582,-0.859137955249198,9.976688992120902,0.008726646259971648,0.0,0.008726646259971648,14.0,-18.1875,-31.75
1762899207.104155,86.58842265004654,-0.19892689322950804,-3.9283820796180793,-0.42493153063964945,-1.0179668974741511,9.800729382302762,0.001090830782496456,-0.001090830782496456,0.003272492347489368,14.6875,-18.1875,-31.5
1762899207.3590987,86.61910401038244,0.27132469788082997,-4.353182869825349,-0.3610206051456511,-1.0525646832203512,9.794862522818514,0.00545415391248228,0.016362461737446838,0.020725784867432664,14.6875,-17.5,-31.75
1762899207.5976412,86.77194087392037,0.8929909447402309,-4.8609788748948635,-0.4324406614874706,-1.0773343842310816,9.79556272753207,-0.003272492347489368,-0.01090830782496456,0.020725784867432664,15.0625,-18.875,-33.0
1762899207.8531575,86.7906054535808,1.158553755635782,-5.115738463055197,-0.39345747910704854,-1.0645999788067346,9.814101069572223,0.002181661564992912,0.002181661564992912,0.008726646259971648,14.25,-17.75,-32.25
1762899208.1261477,87.46527893855756,1.353142661863337,-5.230592851961576,-0.5932111064090475,-1.1350957644709825,9.7948711103863,0.0,0.003272492347489368,0.022907446432425576,15.5,-17.75,-31.5
1762899208.3888788,87.46232148963566,1.4350645241804734,-5.317057797750344,-0.38178330019835754,-1.0485187509563303,9.836711239625444,-0.001090830782496456,-0.004363323129985824,0.0,13.5625,-17.75,-32.5625
1762899208.6462889,87.46355079215452,1.557219301719813,-5.443078000652913,-0.41685752170036416,-1.0627233240698648,9.837764716953417,0.001090830782496456,-0.004363323129985824,-0.001090830782496456,14.25,-17.75,-32.1875
1762899208.8958766,87.45998863488624,1.6458701657932118,-5.527702181873496,-0.39146378515897645,-1.081664332117242,9.797650560143659,0.001090830782496456,0.0,0.002181661564992912,14.0,-18.1875,-31.75
1762899209.1528685,87.61946328240849,1.7849455602182682,-5.4232051223792705,-0.24982523700251533,-0.6246136028621865,9.831595852551256,0.022907446432425576,0.007635815477475192,0.04254240051736178,13.1875,-18.1875,-31.75
1762899209.4127672,87.3983518450253,1.5289402144832933,-5.457967567796067,-0.36011290658091016,-1.3753933485265732,-22.675114217594032,0.022907446432425576,0.02181661564992912,0.00545415391248228,14.6875,-18.1875,-30.5625
1762899209.6750395,86.95508955416675,1.4102170424998361,-5.505127639330685,-0.5194949508237989,-0.9791323185518578,8.29388875670779,0.01090830782496456,0.022907446432425576,-0.1930770485018727,14.0,-18.875,-30.5625
1762899209.940326,84.11867808641186,1.2512406967838259,-5.565230518533493,-0.3875925292921212,-0.8157794285687509,9.875542042693693,-0.007635815477475192,0.016362461737446838,-0.3141592653589793,16.1875,-18.1875,-29.5
1762899210.2032976,79.52542165322319,1.0720263169785882,-5.515801520813031,-0.19536244896352123,-1.2288915910460132,9.536896936872193,0.009817477042468103,-0.01090830782496456,-0.21380283336930536,16.875,-17.75,-29.5
1762899210.4678235,79.12404442286092,1.2628080386275025,-5.463448486941076,-0.35352200159925384,-0.8614002270640906,9.84047990457418,0.017453292519943295,0.044724062082354694,-0.007635815477475192,-24.25,-36.0625,-48.0
1762899210.7326133,79.17771123741512,1.1623598278180076,-5.518912482266,-0.191455599468558,-1.2892087940931019,9.764377662138038,0.02181661564992912,-0.011999138607461015,0.044724062082354694,-24.0625,-37.0625,-47.875
1762899210.9992774,79.05910097364948,1.2803280022300811,-5.424379367360761,-0.27054673235070476,-0.9955071649357201,9.773694819173398,-0.001090830782496456,-0.009817477042468103,-0.00545415391248228,-24.0,-36.25,-45.875
1762899211.2692928,78.97705358555423,1.5042922164427275,-5.530126410718972,-0.3776653261901886,-1.0065719401210902,9.804135627861426,-0.001090830782496456,0.002181661564992912,0.0272707695624114,-23.1875,-36.25,-49.0625
1762899211.5201313,78.91117191735655,1.5339313088924578,-5.624494644296763,-0.4408908117049521,31.208105460140803,9.804082837490082,-0.014180800172453928,-0.026179938779914945,0.001090830782496456,-22.875,-36.25,-47.5
1762899211.7769585,78.81994424331296,1.6405444614143352,-5.682347218031006,-0.44730462854545233,0.14826091254813767,9.77256675238257,0.002181661564992912,0.008726646259971648,0.00545415391248228,-23.6875,-36.0,-48.25
1762899212.0463483,78.80346040518847,1.6986593411699005,-5.7640822908745575,-0.37565735463520616,-1.0150023418012561,9.823702105881761,0.0,0.0,-0.003272492347489368,-24.0625,-36.6875,-47.5
1762899212.3174593,78.80664222788488,1.7535403962532292,-5.824420946145687,-0.38137484046251063,-1.0798521217587558,9.798708796362469,0.002181661564992912,0.004363323129985824,-0.00545415391248228,-23.6875,-36.6875,-47.875
1762899212.5813148,78.80511434634712,1.797384476663053,-5.866032930505796,-0.3866124427296289,-1.0792982633171397,9.800006088113983,0.001090830782496456,-0.002181661564992912,-0.003272492347489368,-23.25,-35.5625,-48.1875
1762899212.8428307,78.80290195753717,1.8315125092914102,-5.894946500141047,-0.373576966843366,-1.0701563731745671,9.796709673631655,0.0,0.001090830782496456,0.001090830782496456,-24.375,-36.6875,-48.25
1762899213.1136868,78.80290195753717,1.8315125092914102,-5.894946500141047,-0.37268086826399766,-1.0670858740289357,9.765421310211604,0.001090830782496456,0.0,-0.001090830782496456,-23.6875,-36.6875,-48.1875
1762899213.367305,78.80290195753717,1.8315125092914102,-5.894946500141047,-0.370220838296287,-1.0705766784510262,9.768449783407968,-0.002181661564992912,0.003272492347489368,0.0,-24.375,-36.6875,-48.1875
1762899213.6306322,78.80290195753717,1.8315125092914102,-5.894946500141047,-0.3887905851557544,-1.0886266599731804,9.805115940662663,0.0,-0.001090830782496456,0.001090830782496456,-23.25,-36.6875,-47.0625
1762899213.8869557,78.80290195753717,1.8315125092914102,-5.894946500141047,-0.3705414798418791,108.53336350619288,9.7811323763294,-0.001090830782496456,-0.001090830782496456,0.001090830782496456,-23.25,-36.0,-48.1875
1762899214.1650083,78.80290195753717,1.8315125092914102,-5.894946500141047,-0.3872686476898533,5.270069205852682,9.790273373207237,0.0,0.0,0.001090830782496456,-22.875,-36.25,-48.6875
1762899214.4255362,78.80290195753717,1.8315125092914102,-5.894946500141047,-0.36677001217894195,-0.6988613112485149,9.745418742004189,0.001090830782496456,0.002181661564992912,0.0,-22.875,-37.0625,-47.875
1762899214.681332,78.80290195753717,1.8315125092914102,-5.894946500141047,-0.3682175131379502,-1.0493736569014058,9.72882794418594,0.0,0.004363323129985824,0.001090830782496456,-24.0625,-36.0,-47.875
1762899214.9416053,78.80290195753717,1.8315125092914102,-5.894946500141047,-0.3856239461679565,-1.0709194726467104,9.803590010746907,0.0,0.004363323129985824,0.002181661564992912,-23.25,-35.5625,-46.6875
1762899215.2016175,78.80290195753717,1.8315125092914102,-5.894946500141047,-0.3814010666546221,-1.082810068163573,9.76087527175389,-0.001090830782496456,0.001090830782496456,0.002181661564992912,-24.375,-36.25,-47.0625
1762899215.4518852,78.80290195753717,1.8315125092914102,-5.894946500141047,-0.38580376005762823,-1.0787987896018596,9.788441394792418,-0.002181661564992912,0.0,0.0,-24.0625,-36.0,-46.25
1762899215.7088323,78.80290195753717,1.8315125092914102,-5.894946500141047,-0.36967975553482696,-1.07764067289243,-22.521292091254818,0.001090830782496456,-0.002181661564992912,-0.001090830782496456,-23.6875,-36.0,-49.0625
1762899215.9672396,78.80290195753717,1.8315125092914102,-5.894946500141047,-0.37798803884348037,-1.0827239766853538,6.980120283041539,-0.001090830782496456,-0.002181661564992912,0.001090830782496456,-23.6875,-37.0625,-48.1875
1762899216.2239788,78.80290195753717,1.8315125092914102,-5.894946500141047,-0.39458071323557736,-1.070959875226114,9.66499258015692,-0.001090830782496456,0.001090830782496456,0.0,-24.375,-36.0,-47.5
1762899216.483432,78.80290195753717,1.8315125092914102,-5.894946500141047,-0.37940477303510184,-1.0717025368905888,9.810958833500452,-0.001090830782496456,-0.002181661564992912,0.0,-23.25,-36.6875,-48.5625
1762899216.734393,78.80290195753717,1.8315125092914102,-5.894946500141047,-0.3866934410332725,-1.0771854311386206,9.800527780652441,0.0,0.001090830782496456,0.0,-24.0625,-35.5625,-47.5
1762899217.0229712,78.80290195753717,1.8315125092914102,-5.894946500141047,-0.38494788822575216,-1.0757999066531232,9.786755778749802,0.0,0.0,0.0,-23.25,-37.0625,-47.875
1762899217.277056,78.80290195753717,1.8315125092914102,-5.894946500141047,-0.3670070922855828,-1.0787081033512822,9.781885043585044,0.0,0.0,-0.002181661564992912,-23.6875,-36.0,-47.875
1762899217.5291886,78.80290195753717,1.8315125092914102,-5.894946500141047,-0.3944744692158174,-1.0716275271020255,9.791601025659647,0.0,-0.001090830782496456,0.0,-23.6875,-36.6875,-48.6875
1762899217.7838545,78.80290195753717,1.8315125092914102,-5.894946500141047,-0.3842012103338013,31.235186876038497,9.779824820316437,0.0,0.0,0.0,-24.375,-36.6875,-48.1875
1762899218.0385628,78.80290195753717,1.8315125092914102,-5.894946500141047,-0.3851801984979582,0.7946352971756726,9.794586354456666,0.001090830782496456,0.0,0.002181661564992912,-22.875,-36.0,-47.5
1762899218.294898,78.80290195753717,1.8315125092914102,-5.894946500141047,-0.3625979208889204,-0.8289720024974108,9.769022532732428,0.0,-0.001090830782496456,0.002181661564992912,2024.3125,-36.25,-47.5
1762899218.554284,78.80290195753717,1.8315125092914102,-5.894946500141047,-0.3779019358105142,-1.0680222497293526,9.783484776672987,0.0,0.001090830782496456,0.002181661564992912,-25.0625,-36.0,-47.875
1762899218.8126314,78.80290195753717,1.8315125092914102,-5.894946500141047,-0.3802063831882996,-1.064758226410487,9.793187493195504,0.0,0.001090830782496456,0.0,-25.0625,-35.5625,-47.875
1762899219.0724547,78.80290195753717,1.8315125092914102,-5.894946500141047,-0.36280621673059676,-1.0883802058320255,9.786306679079175,0.001090830782496456,0.0,0.0,-23.25,-36.0,-47.875
1762899219.3353364,78.80290195753717,1.8315125092914102,-5.894946500141047,-0.39210804389716486,-1.0866481583579894,9.789170162605375,-0.001090830782496456,-0.004363323129985824,-0.002181661564992912,-23.6875,-37.0625,-48.1875
1762899219.5840633,78.80254357083855,1.8341972034504475,-5.908660927401864,-0.375827200013351,-1.0626686239117253,9.77361470078758,-0.008726646259971648,-0.001090830782496456,0.00545415391248228,-23.6875,-37.0625,-47.875
1762899219.840922,78.84640768774062,1.8172825058025053,-5.883180878650703,-0.41775137449269595,-1.0500638003252094,9.445511793756063,0.008726646259971648,-0.007635815477475192,0.0,-23.5625,-36.6875,-47.875
1762899220.1032832,78.85138102955769,1.8712201122998002,-5.829747707689095,-0.36968667763368124,-1.171949633824663,9.777846729961384,-0.007635815477475192,0.011999138607461015,0.025089107997418487,-22.75,-37.375,-47.875
1762899220.3538308,78.85003644804247,1.8944703836255796,-5.839424086512935,-0.3617848229026094,-1.1224396249140403,9.757663041514629,0.0,-0.001090830782496456,-0.001090830782496456,-24.375,-36.25,-48.25
1762899220.6083121,78.82862923593785,1.8851095961444293,-5.834130781541317,-0.4181739422066092,-1.0224731873982158,9.777595282308384,-0.006544984694978736,-0.00545415391248228,0.007635815477475192,-23.25,-36.25,-47.875
1762899221.31949,78.82390853737164,1.9739791258682715,-5.923876041389101,-0.364401785928665,-1.0449049774430594,9.80186648520012,-0.002181661564992912,-0.002181661564992912,-0.001090830782496456,-24.75,-36.0,-48.5625
1762899222.038582,78.82390853737164,1.9739791258682715,-5.923876041389101,-0.39148134091641335,-1.0568926153169835,9.780622209820294,-0.001090830782496456,-0.001090830782496456,0.001090830782496456,-24.0625,-35.5625,-49.75
