timestamp,yaw,pitch,roll,ax,ay,az,gx,gy,gz,mx,my,mz
1769643873.9098113,0.0,0.0,0.0,0.0,0.0,0.0,-0.003272492347489368,0.002181661564992912,-0.003272492347489368,-9.0,13.5625,-17.5
1769643873.9252844,0.0,0.0,0.0,0.020070670243916303,-0.4783509741466718,1.6725558536596918,-0.001090830782496456,0.002181661564992912,0.008726646259971648,-9.0,13.5625,-17.5
1769643873.9468489,0.0,0.0,0.0,0.020070670243916303,-0.4783509741466718,1.6725558536596918,-0.001090830782496456,0.002181661564992912,0.008726646259971648,-9.0,13.5625,-17.5
1769643873.9628115,0.0,0.0,0.0,0.03342747708716548,-0.6996799643985152,3.3451117073193837,0.002181661564992912,-0.004363323129985824,0.0,-9.0,13.5625,-17.5
1769643873.9848764,0.0,0.0,0.0,0.03342747708716548,-0.6996799643985152,3.3451117073193837,0.002181661564992912,-0.004363323129985824,0.0,-9.0,13.5625,-17.5
1769643874.0060031,0.07400498910082848,-1.0955958103565695,-7.7284156704000475,0.05569672966531655,-0.9439801745165588,5.017667560979075,-0.003272492347489368,0.002181661564992912,0.002181661564992912,-9.0,13.5625,-17.5
1769643874.0189803,0.07400498910082848,-1.0955958103565695,-7.7284156704000475,0.05569672966531655,-0.9439801745165588,5.017667560979075,-0.003272492347489368,0.002181661564992912,0.002181661564992912,-9.0,13.5625,-17.5
1769643874.0415776,0.06709285989914614,-1.096067606584778,-7.735391854645429,0.07386178019954445,-1.1132494587525958,6.597340513741375,-0.002181661564992912,0.002181661564992912,-0.014180800172453928,-9.375,15.375,-17.875
1769643874.054555,0.06709285989914614,-1.096067606584778,-7.735391854645429,0.07386178019954445,-1.1132494587525958,6.597340513741375,-0.002181661564992912,0.002181661564992912,-0.014180800172453928,-9.375,15.375,-17.875
1769643874.0695953,0.06709285989914614,-1.096067606584778,-7.735391854645429,0.08595041841316295,-1.2258962765498789,7.64859521770158,0.002181661564992912,0.007635815477475192,0.00545415391248228,-9.375,15.375,-17.875
1769643874.0885172,0.03354594623002015,-1.096059704743817,-7.735336254027319,0.08595041841316295,-1.2258962765498789,7.64859521770158,0.002181661564992912,0.007635815477475192,0.00545415391248228,-9.375,15.375,-17.875
1769643874.1018665,0.033008017845336864,-1.089090400578446,-7.728348549253312,0.09996300052943564,-1.2340179807131566,8.3481934799026,0.001095301332053573,0.007635175492029846,0.007635815477475192,-9.375,15.375,-17.875
1769643874.1149921,0.033008017845336864,-1.089090400578446,-7.728348549253312,0.13652677547334732,-1.2394052025387798,8.800387861543449,-0.004365238412041709,-0.0032699370799881364,-0.001090830782496456,-10.053496280081662,15.380888914376316,-16.6875
1769643874.1266527,0.033008017845336864,-1.089090400578446,-7.728348549253312,0.13652677547334732,-1.2394052025387798,8.800387861543449,-0.004365238412041709,-0.0032699370799881364,-0.001090830782496456,-10.053496280081662,15.380888914376316,-16.6875
1769643874.1380377,0.039515726457779496,-1.081641129802491,-7.728405651106052,0.13408104324840178,-1.2730806703040856,9.101318171183213,-3.1933832345164184e-06,-0.005454152977626249,0.007635815477475192,-10.053496280081662,15.380888914376316,-16.6875
1769643874.1506717,0.039515726457779496,-1.081641129802491,-7.728405651106052,0.13408104324840178,-1.2730806703040856,9.101318171183213,-3.1933832345164184e-06,-0.005454152977626249,0.007635815477475192,-10.053496280081662,15.380888914376316,-16.6875
1769643874.1631613,0.039515726457779496,-1.081641129802491,-7.728405651106052,0.13913974094472095,-1.3021854572867062,9.308274154051293,0.0,0.0,0.007635815477475192,-10.053496280081662,15.380888914376316,-16.6875
1769643874.1746588,0.039515726457779496,-1.081641129802491,-7.728405651106052,0.13913974094472095,-1.3021854572867062,9.308274154051293,0.0,0.0,0.007635815477475192,-10.053496280081662,15.380888914376316,-16.6875
1769643874.1898677,0.03253657234692847,-1.0821124944306975,-7.728340044047214,0.1425101648487813,-1.3148641456339496,9.46941683075143,0.0010914692721721532,0.0010901919188783466,-0.009817477042468103,-9.678715905215675,15.005669417794234,-16.25
1769643874.2042363,0.03253657234692847,-1.0821124944306975,-7.728340044047214,0.1425101648487813,-1.3148641456339496,9.46941683075143,0.0010914692721721532,0.0010901919188783466,-0.009817477042468103,-9.678715905215675,15.005669417794234,-16.25
1769643874.2187874,0.033008017845336864,-1.089090400578446,-7.728348549253312,0.1481060896338218,-1.3099231851112345,9.580000593721044,0.0021829385443443063,0.002180383837756693,0.001090830782496456,-9.678715905215675,15.005669417794234,-16.25
1769643874.23237,0.03253657234692847,-1.0821124944306975,-7.728340044047214,0.15183011506769054,-1.3066350310775134,9.660283076090387,0.0010901919188783466,-0.0010914692721721532,0.008726646259971648,-9.678715905215675,15.005669417794234,-16.25
1769643874.251453,0.03253657234692847,-1.0821124944306975,-7.728340044047214,0.15183011506769054,-1.3066350310775134,9.660283076090387,0.0010901919188783466,-0.0010914692721721532,0.008726646259971648,-9.678715905215675,15.005669417794234,-16.25
1769643874.269377,0.03253657234692847,-1.0821124944306975,-7.728340044047214,0.1509633012598817,-1.304444842750901,9.707019947878457,0.001093385302112863,0.004362683705454096,-0.006544984694978736,-9.67340985114621,24.06816786445839,-16.6875
1769643874.2857587,0.03253657234692847,-1.0821124944306975,-7.728340044047214,0.15037861216069792,-1.316367741421382,9.728087478846392,-0.0010901919188783466,0.0010914692721721532,-0.003272492347489368,-9.67340985114621,24.06816786445839,-16.6875
1769643874.2980087,0.03253657234692847,-1.0821124944306975,-7.728340044047214,0.15037861216069792,-1.316367741421382,9.728087478846392,-0.0010901919188783466,0.0010914692721721532,-0.003272492347489368,-9.67340985114621,24.06816786445839,-16.6875
1769643874.3099544,0.03253657234692847,-1.0821124944306975,-7.728340044047214,0.15668756455754526,-1.3109257698597632,9.742107685365813,0.0010921079488190565,0.0021810225144035965,-0.003272492347489368,-9.67340985114621,24.06816786445839,-16.6875
1769643874.3222075,0.03253657234692847,-1.0821124944306975,-7.728340044047214,0.15668756455754526,-1.3109257698597632,9.742107685365813,0.0010921079488190565,0.0021810225144035965,-0.003272492347489368,-9.67340985114621,24.06816786445839,-16.6875
1769643874.3367121,0.03253657234692847,-1.0821124944306975,-7.728340044047214,0.16089001899854696,-1.3006139763083944,9.758128199603158,-0.0010869985356438301,0.0065456222497984025,-0.004363323129985824,-9.365776837062885,15.755486321860596,-17.5
1769643874.3499398,0.03253657234692847,-1.0821124944306975,-7.728340044047214,0.16089001899854696,-1.3006139763083944,9.758128199603158,-0.0010869985356438301,0.0065456222497984025,-0.004363323129985824,-9.365776837062885,15.755486321860596,-17.5
1769643874.3621914,0.03253657234692847,-1.0821124944306975,-7.728340044047214,0.1670337751667581,-1.290408440304539,9.768789672867241,0.0010921079488190565,0.0021810225144035965,-0.001090830782496456,-9.365776837062885,15.755486321860596,-17.5
1769643874.3739922,0.03253657234692847,-1.0821124944306975,-7.728340044047214,0.1670337751667581,-1.290408440304539,9.768789672867241,0.0010921079488190565,0.0021810225144035965,-0.001090830782496456,-9.365776837062885,15.755486321860596,-17.5
1769643874.3862402,0.03253657234692847,-1.0821124944306975,-7.728340044047214,0.16777530658423281,-1.2869599226829813,9.755814093984112,-0.00108891456558454,0.003273130463222653,-0.003272492347489368,-9.365776837062885,15.755486321860596,-17.5
1769643874.3982038,0.03253657234692847,-1.0821124944306975,-7.728340044047214,0.16825507762130806,-1.3080807506660106,9.747178991184102,0.002184215897638113,0.004362045028807193,-0.002181661564992912,-10.490923018140352,15.506145047285381,-15.875
1769643874.4103189,0.03253657234692847,-1.0821124944306975,-7.728340044047214,0.16825507762130806,-1.3080807506660106,9.747178991184102,0.002184215897638113,0.004362045028807193,-0.002181661564992912,-10.490923018140352,15.506145047285381,-15.875
1769643874.4246986,-37.502335219551604,-1.077906094139345,-7.728300603857898,0.15853902648521218,-1.3221305501088352,9.748122650145753,0.002182299867697403,0.0010895532422314433,-0.002181661564992912,-10.490923018140352,15.506145047285381,-15.875
1769643874.4371145,-37.50254866521736,-1.075669148762706,-7.721689943069272,0.1520907299238644,-1.301374534485864,9.782201761716564,0.0021810225144035965,-0.0010921079488190565,0.00545415391248228,-10.490923018140352,15.506145047285381,-15.875
1769643874.448964,-37.50254866521736,-1.075669148762706,-7.721689943069272,0.1520907299238644,-1.301374534485864,9.782201761716564,0.0021810225144035965,-0.0010921079488190565,0.00545415391248228,-10.490923018140352,15.506145047285381,-15.875
1769643874.461189,-37.50254866521736,-1.075669148762706,-7.721689943069272,0.15115436446972805,-1.2708380408271283,9.804881029778318,-0.0010914692721721532,-0.0010901919188783466,0.007635815477475192,-10.053679247463368,15.06838896793962,-16.6875
1769643874.4733977,-37.50254866521736,-1.075669148762706,-7.721689943069272,0.15115436446972805,-1.2708380408271283,9.804881029778318,-0.0010914692721721532,-0.0010901919188783466,0.007635815477475192,-10.053679247463368,15.06838896793962,-16.6875
1769643874.4847553,-37.4365530073905,-1.0689714511095407,-7.715720238095691,0.15053122371988775,-1.2505163454122246,9.806593382500115,-0.005457346360860766,-0.005450959594391733,0.015271630954950384,-10.053679247463368,15.06838896793962,-16.6875
1769643874.497637,-37.436340308279945,-1.0712046442758811,-7.722332236990344,0.14341455695434255,-1.2570592338290543,9.801042710693599,-0.005456069007566959,-0.003269298403341233,0.006544984694978736,-10.053679247463368,15.06838896793962,-16.6875
1769643874.5101197,-37.436340308279945,-1.0712046442758811,-7.722332236990344,0.14341455695434255,-1.2570592338290543,9.801042710693599,-0.005456069007566959,-0.003269298403341233,0.006544984694978736,-10.053679247463368,15.06838896793962,-16.6875
1769643874.5216508,-37.39220195577659,-1.066077491125185,-7.738214135017527,0.1386491164963801,-1.3115901199909807,9.773933018660193,-0.0032724917865757496,1.9160299407098514e-06,-0.008726646259971648,-9.366179365302639,15.067986439699867,-16.6875
1769643874.5332685,-37.39220195577659,-1.066077491125185,-7.738214135017527,0.1386491164963801,-1.3115901199909807,9.773933018660193,-0.0032724917865757496,1.9160299407098514e-06,-0.008726646259971648,-9.366179365302639,15.067986439699867,-16.6875
1769643874.5463314,-37.385377574218204,-1.0657301278102962,-7.760496074551148,0.13545230797771102,-1.3913662603232932,9.752546709739745,0.0032763238464571694,0.006543067543210789,-0.007635815477475192,-9.366179365302639,15.067986439699867,-16.6875
1769643874.5583966,-37.38601794798129,-1.056888226255691,-7.756113873684539,0.140015089887145,-1.4444603076530844,9.738314360053911,0.015275460397234918,0.006536042100094853,-0.007635815477475192,-9.366179365302639,15.067986439699867,-16.6875
1769643874.57,-37.38601794798129,-1.056888226255691,-7.756113873684539,0.140015089887145,-1.4444603076530844,9.738314360053911,0.015275460397234918,0.006536042100094853,-0.007635815477475192,-9.366179365302639,15.067986439699867,-16.6875
1769643874.5823805,-37.38601794798129,-1.056888226255691,-7.756113873684539,0.1431064096294816,-1.386130691300849,9.765639119104264,0.003271214433281943,-0.0021835772209912096,-0.002181661564992912,-10.053679247463368,15.06838896793962,-16.6875
1769643874.5948324,-37.38601794798129,-1.056888226255691,-7.756113873684539,0.1431064096294816,-1.386130691300849,9.765639119104264,0.003271214433281943,-0.0021835772209912096,-0.002181661564992912,-10.053679247463368,15.06838896793962,-16.6875
1769643874.6170743,-37.38601794798129,-1.056888226255691,-7.756113873684539,0.1585734711454057,-1.2971441503865968,9.82061966979523,-0.00108891456558454,0.003273130463222653,-0.001090830782496456,-10.053679247463368,15.06838896793962,-16.6875
1769643874.63696,-37.38601794798129,-1.056888226255691,-7.756113873684539,0.1585734711454057,-1.2971441503865968,9.82061966979523,-0.00108891456558454,0.003273130463222653,-0.001090830782496456,-10.053679247463368,15.06838896793962,-16.6875
1769643874.650704,-37.38601794798129,-1.056888226255691,-7.756113873684539,0.1585734711454057,-1.2971441503865968,9.82061966979523,-0.00108891456558454,0.003273130463222653,-0.001090830782496456,-10.053679247463368,15.06838896793962,-16.6875
1769643874.6687944,-37.284084032880166,-1.056666127158007,-7.755147329615226,0.17221173893981379,-1.2379265600012148,9.857208612107073,-0.0021835772209912096,-0.003271214433281943,0.0,-8.991179429578604,15.067766878841821,-16.6875
1769643874.6867025,-37.284084032880166,-1.056666127158007,-7.755147329615226,0.17221173893981379,-1.2379265600012148,9.857208612107073,-0.0021835772209912096,-0.003271214433281943,0.0,-8.991179429578604,15.067766878841821,-16.6875
1769643874.6988482,-37.23930382690316,-1.0625127257606126,-7.75995679752318,0.18124280719762648,-1.2754554711846195,9.804620575221993,0.004365877088688613,0.004360767675513386,-0.003272492347489368,-8.991179429578604,15.067766878841821,-16.6875
1769643874.710784,-37.148801771294174,-1.0584996546252212,-7.744908362877833,0.17721754883768234,-1.3004246667069947,9.769623824121835,0.0010914692721721532,0.0010901919188783466,-0.004363323129985824,-8.991179429578604,15.067766878841821,-16.6875
1769643874.7279706,-37.148801771294174,-1.0584996546252212,-7.744908362877833,0.17721754883768234,-1.3004246667069947,9.769623824121835,0.0010914692721721532,0.0010901919188783466,-0.004363323129985824,-8.991179429578604,15.067766878841821,-16.6875
1769643874.7397468,-37.148801771294174,-1.0584996546252212,-7.744908362877833,0.1712015074232947,-1.3036589843188533,9.789820329399157,-0.004363961058747903,-0.0010882758889376367,0.006544984694978736,-8.991179429578604,15.067766878841821,-17.0625
1769643874.7510347,-37.148801771294174,-1.0584996546252212,-7.744908362877833,0.1712015074232947,-1.3036589843188533,9.789820329399157,-0.004363961058747903,-0.0010882758889376367,0.006544984694978736,-8.991179429578604,15.067766878841821,-17.0625
1769643874.7624576,-37.148801771294174,-1.0584996546252212,-7.744908362877833,0.1671978990656057,-1.30581138655985,9.80326087805147,-0.0043633223821009995,2.554706587613135e-06,0.003272492347489368,-8.991179429578604,15.067766878841821,-17.0625
1769643874.774366,-37.148801771294174,-1.0584996546252212,-7.744908362877833,0.1671978990656057,-1.30581138655985,9.80326087805147,-0.0043633223821009995,2.554706587613135e-06,0.003272492347489368,-8.991179429578604,15.067766878841821,-17.0625
1769643874.7883494,-37.14240049956601,-1.0536721129508455,-7.753954066293077,0.1511413466014174,-1.327306618818045,9.765373849136346,0.0010901919188783466,-0.0010914692721721532,-0.003272492347489368,-8.991179429578604,15.067766878841821,-17.0625
1769643874.8005111,-37.14240049956601,-1.0536721129508455,-7.753954066293077,0.1404519732034277,-1.3483016780363133,9.740160454619174,0.0010921079488190565,0.0021810225144035965,-0.007635815477475192,-9.678679311739334,15.068169407081573,-16.25
1769643874.812468,-37.14240049956601,-1.0536721129508455,-7.753954066293077,0.1404519732034277,-1.3483016780363133,9.740160454619174,0.0010921079488190565,0.0021810225144035965,-0.007635815477475192,-9.678679311739334,15.068169407081573,-16.25
1769643874.8245432,-37.135782773319164,-1.0532442077446773,-7.754165382392748,0.1467187591510248,-1.3622814896089241,9.750142115878623,0.0021835772209912096,0.003271214433281943,-0.004363323129985824,-9.678679311739334,15.068169407081573,-16.25
1769643874.8422894,-37.13599394158293,-1.0510282765743633,-7.747547508309994,0.15091861341843363,-1.3214082310363895,9.763475023358962,0.0032724917865757496,-1.9160299407098514e-06,-0.001090830782496456,-9.678679311739334,15.068169407081573,-16.25
1769643874.8548079,-37.13599394158293,-1.0510282765743633,-7.747547508309994,0.15091861341843363,-1.3214082310363895,9.763475023358962,0.0032724917865757496,-1.9160299407098514e-06,-0.001090830782496456,-9.678679311739334,15.068169407081573,-16.25
1769643874.8685877,-37.13599394158293,-1.0510282765743633,-7.747547508309994,0.14702334725003077,-1.294203616944067,9.775693036056113,-0.0032718531099288463,0.0010927466254659597,0.004363323129985824,-9.366362332684345,14.755486493263172,-17.0625
1769643874.88168,-37.105090891320785,-1.0488959974229304,-7.74753577801902,0.144427174031417,-1.282789472428995,9.783823987021922,-0.002180383837756693,0.0021829385443443063,0.0,-9.366362332684345,14.755486493263172,-17.0625
1769643874.8939364,-37.105090891320785,-1.0488959974229304,-7.74753577801902,0.144427174031417,-1.282789472428995,9.783823987021922,-0.002180383837756693,0.0021829385443443063,0.0,-9.366362332684345,14.755486493263172,-17.0625
1769643874.905772,-37.105090891320785,-1.0488959974229304,-7.74753577801902,0.14267986427300539,-1.3086445980981496,9.769164373817077,-0.0010908305955252499,6.386766469032838e-07,-0.001090830782496456,-9.366362332684345,14.755486493263172,-17.0625
1769643874.9187622,-37.105090891320785,-1.0488959974229304,-7.74753577801902,0.14267986427300539,-1.3086445980981496,9.769164373817077,-0.0010908305955252499,6.386766469032838e-07,-0.001090830782496456,-9.366362332684345,14.755486493263172,-17.0625
1769643874.937155,-37.10487996994533,-1.0511100690870696,-7.75415399300791,0.14151313205099553,-1.3325411176782112,9.759408564987863,0.004365238412041709,0.0032699370799881364,-0.001090830782496456,-10.053679247463368,15.06838896793962,-16.25
1769643874.955558,-37.105090891320785,-1.0488959974229304,-7.74753577801902,0.15077201819237676,-1.3484498601619013,9.752916183191546,0.0010914692721721532,0.0010901919188783466,-0.003272492347489368,-10.053679247463368,15.06838896793962,-16.25
1769643874.9748056,-37.105090891320785,-1.0488959974229304,-7.74753577801902,0.1603003586557266,-1.3222426866472126,9.77201135758199,-0.0010901919188783466,0.0010914692721721532,-0.001090830782496456,-10.053679247463368,15.06838896793962,-16.25
1769643874.9869745,-37.105090891320785,-1.0488959974229304,-7.74753577801902,0.1603003586557266,-1.3222426866472126,9.77201135758199,-0.0010901919188783466,0.0010914692721721532,-0.001090830782496456,-10.053679247463368,15.06838896793962,-16.25
1769643875.007429,-37.105090891320785,-1.0488959974229304,-7.74753577801902,0.16664136279554875,-1.304802105426497,9.784718982831755,-0.0021810225144035965,0.0010921079488190565,0.002181661564992912,-9.679081839979085,14.380669524920844,-14.75
1769643875.0240939,-37.105090891320785,-1.0488959974229304,-7.74753577801902,0.16664136279554875,-1.304802105426497,9.784718982831755,-0.0021810225144035965,0.0010921079488190565,0.002181661564992912,-9.679081839979085,14.380669524920844,-14.75
1769643875.046988,-37.10551875944133,-1.0422788842193198,-7.749750262610235,0.1574592416502713,-1.329983981728682,9.769759983530763,0.0010921079488190565,0.0021810225144035965,-0.002181661564992912,-9.679081839979085,14.380669524920844,-14.75
1769643875.0668612,-37.03226373289153,-1.043986403188826,-7.748357393395637,0.1513486425991031,-1.3467422391077963,9.759804936598924,-0.0010901919188783466,0.0010914692721721532,-0.002181661564992912,-9.36592321096825,15.50548636471124,-16.25
1769643875.0836473,-37.03226373289153,-1.043986403188826,-7.748357393395637,0.1513486425991031,-1.3467422391077963,9.759804936598924,-0.0010901919188783466,0.0010914692721721532,-0.002181661564992912,-9.36592321096825,15.50548636471124,-16.25
1769643875.102169,-37.03226373289153,-1.043986403188826,-7.748357393395637,0.14730365122125183,-1.321098449718051,9.773250634314863,-0.0021810225144035965,0.0010921079488190565,0.003272492347489368,-9.36592321096825,15.50548636471124,-16.25
1769643875.1158583,-37.03226373289153,-1.043986403188826,-7.748357393395637,0.14730365122125183,-1.321098449718051,9.773250634314863,-0.0021810225144035965,0.0010921079488190565,0.003272492347489368,-9.36592321096825,15.50548636471124,-16.25
1769643875.131927,-37.04550274631263,-1.0448422304359721,-7.747936793273857,0.14795686577876477,-1.3040347528873304,9.782198595946536,1.2773532938065676e-06,0.0021816611910504997,0.0,-9.366801454400438,14.005486621815104,-17.0625
1769643875.1461935,-37.04550274631263,-1.0448422304359721,-7.747936793273857,0.14795686577876477,-1.3040347528873304,9.782198595946536,1.2773532938065676e-06,0.0021816611910504997,0.0,-9.366801454400438,14.005486621815104,-17.0625
1769643875.170959,-37.04550274631263,-1.0448422304359721,-7.747936793273857,0.1483719872873257,-1.3261301646000554,9.778118029335173,0.001093385302112863,0.004362683705454096,-0.001090830782496456,-9.366801454400438,14.005486621815104,-17.0625
1769643875.1824942,-37.03226373289153,-1.043986403188826,-7.748357393395637,0.1486482460140619,-1.3408344142729525,9.775402457838227,0.0032724917865757496,-1.9160299407098514e-06,0.0,-9.366801454400438,14.005486621815104,-17.0625
1769643875.1999648,-37.03226373289153,-1.043986403188826,-7.748357393395637,0.1486482460140619,-1.3408344142729525,9.775402457838227,0.0032724917865757496,-1.9160299407098514e-06,0.0,-9.366801454400438,14.005486621815104,-17.0625
1769643875.213547,-37.03226373289153,-1.043986403188826,-7.748357393395637,0.1488536371415298,-1.3138237056994893,9.776940387049251,0.0,0.0,0.0,-10.053276719223614,15.755888850100348,-17.0625
1769643875.2271566,-37.076402931740446,-1.0469744191173667,-7.747950741051482,0.14899032264249049,-1.2958483808732344,9.784654085174031,0.0,0.0,0.002181661564992912,-10.053276719223614,15.755888850100348,-17.0625
1769643875.2406797,-37.076402931740446,-1.0469744191173667,-7.747950741051482,0.14899032264249049,-1.2958483808732344,9.784654085174031,0.0,0.0,0.002181661564992912,-10.053276719223614,15.755888850100348,-17.0625
1769643875.2554827,-37.076402931740446,-1.0469744191173667,-7.747950741051482,0.15240876951614002,-1.3139939617527827,9.78309724169378,-0.002180383837756693,0.0021829385443443063,-0.004363323129985824,-10.053276719223614,15.755888850100348,-17.0625
1769643875.2700028,-37.19422286149953,-1.0416396487476234,-7.751151767399398,0.1546817491757422,-1.3294147542626604,9.778716068041433,0.0010921079488190565,0.0021810225144035965,0.003272492347489368,-10.491581700714493,14.381145240113279,-17.0625
1769643875.2816856,-37.19422286149953,-1.0416396487476234,-7.751151767399398,0.1546817491757422,-1.3294147542626604,9.778716068041433,0.0010921079488190565,0.0021810225144035965,0.003272492347489368,-10.491581700714493,14.381145240113279,-17.0625
1769643875.2951162,-6.985262753311918,15.38839422913173,126.93107701473556,0.156194391748361,-1.3396771194164447,9.772455334209395,0.002182299867697403,0.0010895532422314433,-0.003272492347489368,-10.491581700714493,14.381145240113279,-17.0625
1769643875.3113894,-37.19422286149953,-1.0416396487476234,-7.751151767399398,0.1538618029939292,-1.3364693168380244,9.771633997488472,0.0,0.0,-0.002181661564992912,-10.491581700714493,14.381145240113279,-17.0625
1769643875.32917,-37.19422286149953,-1.0416396487476234,-7.751151767399398,0.1538618029939292,-1.3364693168380244,9.771633997488472,0.0,0.0,-0.002181661564992912,-10.491581700714493,14.381145240113279,-17.0625
1769643875.3494058,-37.18717844420899,-1.0478274026362764,-7.749143261368914,0.15231340833109444,-1.3276443377876712,9.781122742197589,0.0010901919188783466,-0.0010914692721721532,0.002181661564992912,-9.678679311739334,15.068169407081573,-16.0
1769643875.3681889,-37.18717844420899,-1.0478274026362764,-7.749143261368914,0.15231340833109444,-1.3276443377876712,9.781122742197589,0.0010901919188783466,-0.0010914692721721532,0.002181661564992912,-9.678679311739334,15.068169407081573,-16.0
1769643875.389553,-37.18717844420899,-1.0478274026362764,-7.749143261368914,0.1512829689796796,-1.3217714128111362,9.787437395805282,0.00108891456558454,-0.003273130463222653,-0.001090830782496456,-9.678679311739334,15.068169407081573,-16.0
1769643875.410081,-37.18717844420899,-1.0478274026362764,-7.749143261368914,0.15394233423603343,-1.3178650053923808,9.778259280412621,-0.0010914692721721532,-0.0010901919188783466,-0.003272492347489368,-9.679081839979085,14.380669524920844,-15.0625
1769643875.426921,-37.18717844420899,-1.0478274026362764,-7.749143261368914,0.15394233423603343,-1.3178650053923808,9.778259280412621,-0.0010914692721721532,-0.0010901919188783466,-0.003272492347489368,-9.679081839979085,14.380669524920844,-15.0625
1769643875.447019,-37.25402554002478,-1.0434718257254423,-7.744131762139671,0.15571211210708047,-1.3152653348926293,9.772151347145073,-0.0010927466254659597,-0.0032718531099288463,0.002181661564992912,-9.679081839979085,14.380669524920844,-15.0625
1769643875.4601011,-37.25402554002478,-1.0434718257254423,-7.744131762139671,0.15354868547310532,-1.3068431023990916,9.764741474078285,-1.2773532938065676e-06,-0.0021816611910504997,0.001090830782496456,-9.679081839979085,14.380669524920844,-15.0625
1769643875.478845,-37.25402554002478,-1.0434718257254423,-7.744131762139671,0.15354868547310532,-1.3068431023990916,9.764741474078285,-1.2773532938065676e-06,-0.0021816611910504997,0.001090830782496456,-9.679081839979085,14.380669524920844,-15.0625
1769643875.490837,-37.25402554002478,-1.0434718257254423,-7.744131762139671,0.14876383808129523,-1.3012362422088861,9.766500509740682,-0.0010901919188783466,0.0010914692721721532,-0.002181661564992912,-10.490776644234987,15.756145004434737,-16.6875
1769643875.5030656,-37.25402554002478,-1.0434718257254423,-7.744131762139671,0.14876383808129523,-1.3012362422088861,9.766500509740682,-0.0010901919188783466,0.0010914692721721532,-0.002181661564992912,-10.490776644234987,15.756145004434737,-16.6875
1769643875.517426,-37.25402554002478,-1.0434718257254423,-7.744131762139671,0.14891685253322015,-1.310887342469129,9.757635793202333,0.002180383837756693,-0.0021829385443443063,-0.001090830782496456,-10.490776644234987,15.756145004434737,-16.6875
1769643875.5292308,-37.25402554002478,-1.0434718257254423,-7.744131762139671,0.14891685253322015,-1.310887342469129,9.757635793202333,0.002180383837756693,-0.0021829385443443063,-0.001090830782496456,-10.490776644234987,15.756145004434737,-16.6875
1769643875.5412297,-37.26286447274527,-1.0441101180123598,-7.74434812948648,0.14901868194169274,-1.3173100418824666,9.761771758493392,0.0021816611910504997,-1.2773532938065676e-06,-0.003272492347489368,-10.490776644234987,15.756145004434737,-16.6875
1769643875.5547607,-37.26286447274527,-1.0441101180123598,-7.74434812948648,0.14901868194169274,-1.3173100418824666,9.761771758493392,0.0021816611910504997,-1.2773532938065676e-06,-0.003272492347489368,-10.490776644234987,15.756145004434737,-16.6875
1769643875.5668721,-37.26286447274527,-1.0441101180123598,-7.74434812948648,0.1524354765059967,-1.31489601287613,9.771214420607471,-1.2773532938065676e-06,-0.0021816611910504997,-0.001090830782496456,-10.053898808321414,14.693389032215586,-16.0
1769643875.5794842,-37.39348212157554,-1.0462428921450115,-7.744907281351234,0.16139953738836205,-1.3132934206353997,9.777498406762945,-6.386766469032838e-07,-0.0010908305955252499,-0.004363323129985824,-10.053898808321414,14.693389032215586,-16.0
1769643875.5911136,-37.39348212157554,-1.0462428921450115,-7.744907281351234,0.16139953738836205,-1.3132934206353997,9.777498406762945,-6.386766469032838e-07,-0.0010908305955252499,-0.004363323129985824,-10.053898808321414,14.693389032215586,-16.0
1769643875.6054447,-37.39348212157554,-1.0462428921450115,-7.744907281351234,0.16736306122219705,-1.3155720245352807,9.771644994230728,-2.554706587613135e-06,-0.0043633223821009995,0.00545415391248228,-10.053898808321414,14.693389032215586,-16.0
1769643875.6211724,-37.39348212157554,-1.0462428921450115,-7.744907281351234,0.16736306122219705,-1.3155720245352807,9.771644994230728,-2.554706587613135e-06,-0.0043633223821009995,0.00545415391248228,-10.053898808321414,14.693389032215586,-16.0
1769643875.6365688,-37.38025642012123,-1.045388740733372,-7.7453305275044775,0.1545865785643158,-1.3505297285752746,9.764404501870121,-0.0010908305955252499,6.386766469032838e-07,-0.004363323129985824,-9.678679311739334,15.068169407081573,-16.6875
1769643875.6510422,-37.38025642012123,-1.045388740733372,-7.7453305275044775,0.1545865785643158,-1.3505297285752746,9.764404501870121,-0.0010908305955252499,6.386766469032838e-07,-0.004363323129985824,-9.678679311739334,15.068169407081573,-16.6875
1769643875.6707883,-37.38025642012123,-1.045388740733372,-7.7453305275044775,0.14609768191596414,-1.3503779121730393,9.759586035085738,6.386766469032838e-07,0.0010908305955252499,-0.001090830782496456,-9.678679311739334,15.068169407081573,-16.6875
1769643875.6908107,-37.56427654665303,-1.044539206628288,-7.747920643514412,0.15047591523251921,-1.3636632002338602,9.776450069510446,-0.0021835772209912096,-0.003271214433281943,-0.001090830782496456,-9.678679311739334,15.068169407081573,-16.6875
1769643875.7023797,-37.56427654665303,-1.044539206628288,-7.747920643514412,0.15047591523251921,-1.3636632002338602,9.776450069510446,-0.0021835772209912096,-0.003271214433281943,-0.001090830782496456,-9.678679311739334,15.068169407081573,-16.6875
1769643875.7169404,-37.56427654665303,-1.044539206628288,-7.747920643514412,0.15047591523251921,-1.3636632002338602,9.776450069510446,-0.0021835772209912096,-0.003271214433281943,-0.001090830782496456,-9.678679311739334,15.068169407081573,-16.6875
1769643875.7305148,-37.56427654665303,-1.044539206628288,-7.747920643514412,0.15532859234864743,-1.3783881380552745,9.80183178513701,-0.006544344896504596,0.0010946626554066696,-0.003272492347489368,-10.866581636438527,14.381364800971326,-17.5
1769643875.7503247,-37.56427654665303,-1.044539206628288,-7.747920643514412,0.15532859234864743,-1.3783881380552745,9.80183178513701,-0.006544344896504596,0.0010946626554066696,-0.003272492347489368,-10.866581636438527,14.381364800971326,-17.5
1769643875.7619433,-37.56427654665303,-1.044539206628288,-7.747920643514412,0.14991896800023707,-1.3990253312370402,9.79118369742434,0.004363961058747903,0.0010882758889376367,0.001090830782496456,-10.866581636438527,14.381364800971326,-17.5
1769643875.7759116,-37.56427654665303,-1.044539206628288,-7.747920643514412,0.14991896800023707,-1.3990253312370402,9.79118369742434,0.004363961058747903,0.0010882758889376367,0.001090830782496456,-10.866581636438527,14.381364800971326,-17.5
1769643875.7976177,-37.63090996863876,-1.0424109969827549,-7.7495334931332875,0.1463385089084127,-1.3793080414273662,9.784097513998493,-0.00108891456558454,0.003273130463222653,0.0,-10.866179108198775,15.068864683132054,-17.5
1769643875.8090923,-37.63090996863876,-1.0424109969827549,-7.7495334931332875,0.1463385089084127,-1.3793080414273662,9.784097513998493,-0.00108891456558454,0.003273130463222653,0.0,-10.866179108198775,15.068864683132054,-17.5
1769643875.8228457,-37.63090996863876,-1.0424109969827549,-7.7495334931332875,0.14392637515528348,-1.4163630723249663,9.779381738086446,-0.006548176956386016,-0.00545032091774483,-0.004363323129985824,-10.866179108198775,15.068864683132054,-17.5
1769643875.8345823,-37.624301879791076,-1.0419840371122877,-7.749745891767953,0.14569561644570297,-1.3908480729943808,9.77289833018833,-0.0010908305955252499,6.386766469032838e-07,0.011999138607461015,-10.866179108198775,15.068864683132054,-17.5
1769643875.8569484,-37.624301879791076,-1.0419840371122877,-7.749745891767953,0.14569561644570297,-1.3908480729943808,9.77289833018833,-0.0010908305955252499,6.386766469032838e-07,0.011999138607461015,-10.866179108198775,15.068864683132054,-17.5
1769643875.8705757,-37.624301879791076,-1.0419840371122877,-7.749745891767953,0.14686715111598322,-1.3839034593629698,9.765238582949225,0.006544983573151499,-3.832059881419703e-06,0.0,-10.053898808321414,14.693389032215586,-16.25
1769643875.8840861,-37.624301879791076,-1.0419840371122877,-7.749745891767953,0.14686715111598322,-1.3839034593629698,9.765238582949225,0.006544983573151499,-3.832059881419703e-06,0.0,-10.053898808321414,14.693389032215586,-16.25
1769643875.9066715,-37.624301879791076,-1.0419840371122877,-7.749745891767953,0.16437822566672183,-1.369256355907097,9.763486218433902,0.0021791064844628866,-0.004364599735394806,0.0,-10.053898808321414,14.693389032215586,-16.25
1769643875.9227958,-37.624301879791076,-1.0419840371122877,-7.749745891767953,0.16437822566672183,-1.369256355907097,9.763486218433902,0.0021791064844628866,-0.004364599735394806,0.0,-10.053898808321414,14.693389032215586,-16.25
1769643875.9340174,-37.624301879791076,-1.0419840371122877,-7.749745891767953,0.16437822566672183,-1.369256355907097,9.763486218433902,0.0021791064844628866,-0.004364599735394806,0.0,-10.053898808321414,14.693389032215586,-16.25
1769643875.9454076,-37.542207620973585,-1.0430461470533776,-7.7481301444507835,0.169351220642091,-1.3427793994097708,9.779045597960748,-0.0021810225144035965,0.0010921079488190565,0.009817477042468103,-8.99139899043665,14.692766943117787,-16.0
1769643875.9588158,-37.542207620973585,-1.0430461470533776,-7.7481301444507835,0.169351220642091,-1.3427793994097708,9.779045597960748,-0.0021810225144035965,0.0010921079488190565,0.009817477042468103,-8.99139899043665,14.692766943117787,-16.0
1769643875.9723835,-37.542207620973585,-1.0430461470533776,-7.7481301444507835,0.17266069324620537,-1.3251592806277839,9.789400191226205,0.0010901919188783466,-0.0010914692721721532,-0.003272492347489368,-8.99139899043665,14.692766943117787,-16.0
1769643875.9867864,-37.542207620973585,-1.0430461470533776,-7.7481301444507835,0.17266069324620537,-1.3251592806277839,9.789400191226205,0.0010901919188783466,-0.0010914692721721532,-0.003272492347489368,-8.99139899043665,14.692766943117787,-16.0
1769643875.9994922,-37.5355977508406,-1.0426191138261613,-7.748342222937409,0.1748494004572067,-1.3368490663457058,9.786255722254023,0.0010914692721721532,0.0010901919188783466,-0.004363323129985824,-8.99139899043665,14.692766943117787,-16.0
1769643876.0126112,-37.5355977508406,-1.0426191138261613,-7.748342222937409,0.1748494004572067,-1.3368490663457058,9.786255722254023,0.0010914692721721532,0.0010901919188783466,-0.004363323129985824,-8.99139899043665,14.692766943117787,-16.0
1769643876.0324082,-37.542207620973585,-1.0430461470533776,-7.7481301444507835,0.16627062725479066,-1.344622612512746,9.784163113279055,0.0032744078165164595,0.0032705757566350397,0.00545415391248228,-10.053898808321414,14.693389032215586,-16.25
1769643876.0469432,-37.542207620973585,-1.0430461470533776,-7.7481301444507835,0.16627062725479066,-1.344622612512746,9.784163113279055,0.0032744078165164595,0.0032705757566350397,0.00545415391248228,-10.053898808321414,14.693389032215586,-16.25
1769643876.059183,-37.542207620973585,-1.0430461470533776,-7.7481301444507835,0.1605752593575641,-1.3263800427130006,9.782770505382189,0.0010914692721721532,0.0010901919188783466,-0.002181661564992912,-10.053898808321414,14.693389032215586,-16.25
1769643876.0749197,-37.542207620973585,-1.0430461470533776,-7.7481301444507835,0.1605752593575641,-1.3263800427130006,9.782770505382189,0.0010914692721721532,0.0010901919188783466,-0.002181661564992912,-10.053898808321414,14.693389032215586,-16.25
1769643876.090574,-37.47557342795687,-1.0451764343396712,-7.746519297356413,0.15678505564338785,-1.3142398162941273,9.778498628675955,0.0010901919188783466,-0.0010914692721721532,-0.002181661564992912,-10.053898808321414,14.693389032215586,-16.25
1769643876.1028547,-37.47557342795687,-1.0451764343396712,-7.746519297356413,0.15678505564338785,-1.3142398162941273,9.778498628675955,0.0010901919188783466,-0.0010914692721721532,-0.002181661564992912,-10.053898808321414,14.693389032215586,-16.25
1769643876.1170669,-37.47557342795687,-1.0451764343396712,-7.746519297356413,0.1475646609500043,-1.3195371586669007,9.775655742447945,0.004362683705454096,-0.001093385302112863,0.004363323129985824,-9.74077677278692,15.755705882718644,-16.25
1769643876.138074,-37.48484793012484,-1.039205337854314,-7.748970881177019,0.15146392468199094,-1.3230683564855634,9.780454056834964,0.0010914692721721532,0.0010901919188783466,-0.002181661564992912,-9.74077677278692,15.755705882718644,-16.25
1769643876.158823,-37.48484793012484,-1.039205337854314,-7.748970881177019,0.15146392468199094,-1.3230683564855634,9.780454056834964,0.0010914692721721532,0.0010901919188783466,-0.002181661564992912,-9.74077677278692,15.755705882718644,-16.25
1769643876.1715338,-37.48484793012484,-1.039205337854314,-7.748970881177019,0.15405884113799811,-1.3254183291878194,9.78364728145884,-1.2773532938065676e-06,-0.0021816611910504997,0.001090830782496456,-9.74077677278692,15.755705882718644,-16.25
1769643876.1849363,-37.48484793012484,-1.039205337854314,-7.748970881177019,0.15405884113799811,-1.3254183291878194,9.78364728145884,-1.2773532938065676e-06,-0.0021816611910504997,0.001090830782496456,-9.74077677278692,15.755705882718644,-16.25
1769643876.2000484,-37.586772480730986,-1.0394244242033799,-7.749952838318044,0.15578377050409686,-1.3303273209042141,9.775737001653416,-1.2773532938065676e-06,-0.0021816611910504997,0.004363323129985824,-10.86639866905682,14.693864747408021,-16.0
1769643876.2116175,-37.586772480730986,-1.0394244242033799,-7.749952838318044,0.15578377050409686,-1.3303273209042141,9.775737001653416,-1.2773532938065676e-06,-0.0021816611910504997,0.004363323129985824,-10.86639866905682,14.693864747408021,-16.0
1769643876.223336,-37.77942436387511,-1.043577881108334,-7.7439094516744955,0.1502375523640789,-1.3402805052258455,9.760437463684564,0.0010914692721721532,0.0010901919188783466,-0.003272492347489368,-10.86639866905682,14.693864747408021,-16.0
1769643876.236344,-37.77942436387511,-1.043577881108334,-7.7439094516744955,0.1502375523640789,-1.3402805052258455,9.760437463684564,0.0010914692721721532,0.0010901919188783466,-0.003272492347489368,-10.86639866905682,14.693864747408021,-16.0
1769643876.24808,-7.079723059415871,15.62875935937559,126.98490725301629,0.14654660614721307,-1.3469042382075374,9.75025579207333,0.0010908305955252499,-6.386766469032838e-07,-0.00545415391248228,-10.86639866905682,14.693864747408021,-16.0
1769643876.2635317,-7.079723059415871,15.62875935937559,126.98490725301629,0.14654660614721307,-1.3469042382075374,9.75025579207333,0.0010908305955252499,-6.386766469032838e-07,-0.00545415391248228,-10.86639866905682,14.693864747408021,-16.0
1769643876.2827713,-37.750749736071675,-1.0416595498941237,-7.744334314929492,0.14743543380441826,-1.3513142170631658,9.760205561889375,0.0010921079488190565,0.0021810225144035965,0.002181661564992912,-10.866801197296574,14.006364865247292,-15.5625
1769643876.295942,-37.750749736071675,-1.0416595498941237,-7.744334314929492,0.14803673142272242,-1.3375234530591016,9.766827022555741,0.0010914692721721532,0.0010901919188783466,-0.001090830782496456,-10.866801197296574,14.006364865247292,-15.5625
1769643876.3105643,-37.750749736071675,-1.0416595498941237,-7.744334314929492,0.14803673142272242,-1.3375234530591016,9.766827022555741,0.0010914692721721532,0.0010901919188783466,-0.001090830782496456,-10.866801197296574,14.006364865247292,-15.5625
1769643876.3278723,-37.750749736071675,-1.0416595498941237,-7.744334314929492,0.14843884681902728,-1.325000742533366,9.771233530662645,0.0032718531099288463,-0.0010927466254659597,-0.001090830782496456,-10.866801197296574,14.006364865247292,-15.5625
1769643876.3440237,-37.79488837265705,-1.0446434407197471,-7.743909836960661,0.14871428431637654,-1.303286574030497,9.784201347705828,-6.386766469032838e-07,-0.0010908305955252499,0.0,-10.866179108198775,15.068864683132054,-16.0
1769643876.360008,-37.79488837265705,-1.0446434407197471,-7.743909836960661,0.14889758489402402,-1.2888360374549936,9.792831285088058,0.003273769139869556,0.00217974516110979,0.003272492347489368,-10.866179108198775,15.068864683132054,-16.0
1769643876.3783724,-37.79488837265705,-1.0446434407197471,-7.743909836960661,0.14889758489402402,-1.2888360374549936,9.792831285088058,0.003273769139869556,0.00217974516110979,0.003272492347489368,-10.866179108198775,15.068864683132054,-16.0
1769643876.3940592,-37.77281908122852,-1.043151538532127,-7.744122363043237,0.14902348647736266,-1.2725291445191491,9.751742848110743,0.0010940239787597663,0.005453514300979346,0.0,-10.866179108198775,15.068864683132054,-16.0
1769643876.4085903,-37.77281908122852,-1.043151538532127,-7.744122363043237,0.14902348647736266,-1.2725291445191491,9.751742848110743,0.0010940239787597663,0.005453514300979346,0.0,-10.866179108198775,15.068864683132054,-16.0
1769643876.428272,-37.77281908122852,-1.043151538532127,-7.744122363043237,0.1491013969298879,-1.2717124228321501,9.724398952290255,-0.0010927466254659597,-0.0032718531099288463,-0.00545415391248228,-10.053423093128979,15.505888892950994,-16.25
1769643876.4499645,-37.77281908122852,-1.043151538532127,-7.744122363043237,0.1491532454657267,-1.2711689036728315,9.722927453609648,-0.0010914692721721532,-0.0010901919188783466,0.004363323129985824,-10.053423093128979,15.505888892950994,-16.25
1769643876.4619894,-37.77281908122852,-1.043151538532127,-7.744122363043237,0.14917012315282,-1.3009131979494393,9.721948187675421,-0.002182299867697403,-0.0010895532422314433,0.001090830782496456,-10.053423093128979,15.505888892950994,-16.25
1769643876.4762704,-37.77281908122852,-1.043151538532127,-7.744122363043237,0.14917012315282,-1.3009131979494393,9.721948187675421,-0.002182299867697403,-0.0010895532422314433,0.001090830782496456,-10.053423093128979,15.505888892950994,-16.25
1769643876.4934514,-37.77942436387511,-1.043577881108334,-7.7439094516744955,0.1391460216631686,-1.3207018178802097,9.72798672054995,0.0010901919188783466,-0.0010914692721721532,0.003272492347489368,-9.741581829266424,14.380706118397185,-17.5
1769643876.5175157,-37.77942436387511,-1.043577881108334,-7.7439094516744955,0.1324848868396459,-1.317145367720976,9.732005296723116,-6.386766469032838e-07,-0.0010908305955252499,-0.001090830782496456,-9.741581829266424,14.380706118397185,-17.5
1769643876.531201,-37.77942436387511,-1.043577881108334,-7.7439094516744955,0.1324848868396459,-1.317145367720976,9.732005296723116,-6.386766469032838e-07,-0.0010908305955252499,-0.001090830782496456,-9.741581829266424,14.380706118397185,-17.5
1769643876.5449498,-37.77942436387511,-1.043577881108334,-7.7439094516744955,0.15815797622997063,-1.3147962168024783,9.751405172812518,-0.0032705757566350397,0.0032744078165164595,0.001090830782496456,-9.741581829266424,14.380706118397185,-17.5
1769643876.5585153,-37.77942436387511,-1.043577881108334,-7.7439094516744955,0.15815797622997063,-1.3147962168024783,9.751405172812518,-0.0032705757566350397,0.0032744078165164595,0.001090830782496456,-9.741581829266424,14.380706118397185,-17.5
1769643876.574795,-37.77942436387511,-1.043577881108334,-7.7439094516744955,0.17523921333551626,-1.3199231053758707,9.7643155736392,0.0010927466254659597,0.0032718531099288463,0.006544984694978736,-9.67889887259738,14.693169471357539,-16.6875
1769643876.5914779,-37.77942436387511,-1.043577881108334,-7.7439094516744955,0.1799163635514188,-1.3233310753538494,9.779597524585368,0.0021810225144035965,-0.0010921079488190565,-0.00545415391248228,-9.67889887259738,14.693169471357539,-16.6875
1769643876.6033373,-37.77942436387511,-1.043577881108334,-7.7439094516744955,0.1799163635514188,-1.3233310753538494,9.779597524585368,0.0021810225144035965,-0.0010921079488190565,-0.00545415391248228,-9.67889887259738,14.693169471357539,-16.6875
1769643876.6147883,-37.77942436387511,-1.043577881108334,-7.7439094516744955,0.18304070606245815,-1.3055283745009236,9.76635171027823,6.386766469032838e-07,0.0010908305955252499,0.0,-9.67889887259738,14.693169471357539,-16.6875
1769643876.6272047,-37.77942436387511,-1.043577881108334,-7.7439094516744955,0.18304070606245815,-1.3055283745009236,9.76635171027823,6.386766469032838e-07,0.0010908305955252499,0.0,-9.67889887259738,14.693169471357539,-16.6875
1769643876.640148,-37.83945310121252,-1.0410240102029709,-7.745739957256335,0.18511992110236217,-1.2936808759525005,9.780952550773506,-0.0010895532422314433,0.002182299867697403,0.004363323129985824,-10.491581700714493,14.381145240113279,-16.25
1769643876.65709,-37.83945310121252,-1.0410240102029709,-7.745739957256335,0.18511992110236217,-1.2936808759525005,9.780952550773506,-0.0010895532422314433,0.002182299867697403,0.004363323129985824,-10.491581700714493,14.381145240113279,-16.25
1769643876.668802,-37.83945310121252,-1.0410240102029709,-7.745739957256335,0.16977414271875552,-1.292476927540383,9.790669247021038,-6.386766469032838e-07,-0.0010908305955252499,0.003272492347489368,-10.491581700714493,14.381145240113279,-16.25
1769643876.6845603,-37.994361025689,-1.0448669307664438,-7.746502782021383,0.1595558229832682,-1.3017110467229795,9.79713559983116,0.0010940239787597663,0.005453514300979346,-0.00545415391248228,-10.491581700714493,14.381145240113279,-16.25
1769643876.6990907,-37.994361025689,-1.0448669307664438,-7.746502782021383,0.1595558229832682,-1.3017110467229795,9.79713559983116,0.0010940239787597663,0.005453514300979346,-0.00545415391248228,-10.491581700714493,14.381145240113279,-16.25
1769643876.7146943,-37.994361025689,-1.0448669307664438,-7.746502782021383,0.16278510310251412,-1.317897458933777,9.784713326855806,0.0021829385443443063,0.002180383837756693,-0.001090830782496456,-11.553678990359504,15.069267211371807,-16.0
1769643876.7288668,-38.14969052084076,-1.0421151566848519,-7.749529879159852,0.1649400285932235,-1.3186340020441152,9.776446442956589,-0.00217974516110979,0.003273769139869556,0.0,-11.553678990359504,15.069267211371807,-16.0
1769643876.7456064,-38.14969052084076,-1.0421151566848519,-7.749529879159852,0.1649400285932235,-1.3186340020441152,9.776446442956589,-0.00217974516110979,0.003273769139869556,0.0,-11.553678990359504,15.069267211371807,-16.0
1769643876.759103,-38.14969052084076,-1.0421151566848519,-7.749529879159852,0.15967800952250455,-1.3291555795616796,9.780980259190763,-0.003273130463222653,-0.00108891456558454,0.001090830782496456,-11.553678990359504,15.069267211371807,-16.0
1769643876.7747757,-38.1717583136774,-1.0436073416120852,-7.749312643461211,0.1561683604185139,-1.349538016401731,9.783997463248559,-0.0032724917865757496,1.9160299407098514e-06,-0.006544984694978736,-11.178422900301081,15.506547575525133,-16.0
1769643876.7879217,-38.1717583136774,-1.0436073416120852,-7.749312643461211,0.1561683604185139,-1.349538016401731,9.783997463248559,-0.0032724917865757496,1.9160299407098514e-06,-0.006544984694978736,-11.178422900301081,15.506547575525133,-16.0
1769643876.8115265,-38.1717583136774,-1.0436073416120852,-7.749312643461211,0.1538288110486416,-1.3697925226999645,9.775970043722687,0.0010914692721721532,0.0010901919188783466,0.00545415391248228,-11.178422900301081,15.506547575525133,-16.0
1769643876.8274105,-38.1717583136774,-1.0436073416120852,-7.749312643461211,0.1538288110486416,-1.3697925226999645,9.775970043722687,0.0010914692721721532,0.0010901919188783466,0.00545415391248228,-11.178422900301081,15.506547575525133,-16.0
1769643876.8432727,-38.1717583136774,-1.0436073416120852,-7.749312643461211,0.15227578417398632,-1.3765814481158611,9.770627885700371,-2.554706587613135e-06,-0.0043633223821009995,-0.004363323129985824,-10.491179172474741,15.068645122274008,2032.4375
1769643876.86022,-38.1717583136774,-1.0436073416120852,-7.749312643461211,0.15125988907167143,-1.350993401937247,9.767072739212335,-0.002182299867697403,-0.0010895532422314433,0.009817477042468103,-10.491179172474741,15.068645122274008,2032.4375
1769643876.8803153,-38.1717583136774,-1.0436073416120852,-7.749312643461211,0.15125988907167143,-1.350993401937247,9.767072739212335,-0.002182299867697403,-0.0010895532422314433,0.009817477042468103,-10.491179172474741,15.068645122274008,2032.4375
1769643876.8999562,-38.1717583136774,-1.0436073416120852,-7.749312643461211,0.15125988907167143,-1.350993401937247,9.767072739212335,-0.002182299867697403,-0.0010895532422314433,0.009817477042468103,-10.491179172474741,15.068645122274008,2032.4375
1769643876.9205801,-38.09193079695471,-1.0448761939707836,-7.748119061062857,0.15058382222937272,-1.3339648430425837,9.761361717230816,-0.0021829385443443063,-0.002180383837756693,0.0,-9.366179365302639,15.067986439699867,-16.25
1769643876.9359555,-38.127622646450284,-1.040622881608496,-7.749746540878853,0.16350847618904513,-1.3326756949145595,9.75756109589841,0.0021810225144035965,-0.0010921079488190565,0.0,-9.366179365302639,15.067986439699867,-16.25
1769643876.9529753,-38.127622646450284,-1.040622881608496,-7.749746540878853,0.1620743556194865,-1.331811905591314,9.768412271686694,0.0010908305955252499,-6.386766469032838e-07,0.004363323129985824,-9.366179365302639,15.067986439699867,-16.25
1769643876.9738784,-38.127622646450284,-1.040622881608496,-7.749746540878853,0.1620743556194865,-1.331811905591314,9.768412271686694,0.0010908305955252499,-6.386766469032838e-07,0.004363323129985824,-9.366179365302639,15.067986439699867,-16.25
1769643877.0001113,-38.11442581414415,-1.039770674149405,-7.75017479778415,0.16111996440062165,-1.3312370634458532,9.775633607958222,-0.004364599735394806,-0.0021791064844628866,0.002181661564992912,-10.490776644234987,15.756145004434737,-16.25
1769643877.0212216,-38.11442581414415,-1.039770674149405,-7.75017479778415,0.1537750199552191,-1.3643017066625267,9.767058879750033,0.0,0.0,0.001090830782496456,-10.490776644234987,15.756145004434737,-16.25
1769643877.0332656,-38.11442581414415,-1.039770674149405,-7.75017479778415,0.1537750199552191,-1.3643017066625267,9.767058879750033,0.0,0.0,0.001090830782496456,-10.490776644234987,15.756145004434737,-16.25
1769643877.0509052,-38.11442581414415,-1.039770674149405,-7.75017479778415,0.14219681920729196,-1.386301940270441,9.761352493913474,0.005455430330920056,0.0021784678078159833,-0.00545415391248228,-10.490776644234987,15.756145004434737,-16.25
1769643877.0698898,-38.11442581414415,-1.039770674149405,-7.75017479778415,0.14219681920729196,-1.386301940270441,9.761352493913474,0.005455430330920056,0.0021784678078159833,-0.00545415391248228,-10.490776644234987,15.756145004434737,-16.25
1769643877.090817,-38.127622646450284,-1.040622881608496,-7.749746540878853,0.14122496627611492,-1.3273543221272222,9.767590293005709,0.003273130463222653,0.00108891456558454,-0.008726646259971648,-10.491398733332787,14.693645186549974,-15.5625
1769643877.1026256,-38.127622646450284,-1.040622881608496,-7.749746540878853,0.150613542408601,-1.2881312163857244,9.77174147862081,-0.007636452845323652,-0.0010863598589969268,0.006544984694978736,-10.491398733332787,14.693645186549974,-15.5625
1769643877.1184027,-38.127622646450284,-1.040622881608496,-7.749746540878853,0.150613542408601,-1.2881312163857244,9.77174147862081,-0.007636452845323652,-0.0010863598589969268,0.006544984694978736,-10.491398733332787,14.693645186549974,-15.5625
1769643877.139804,-38.298209171180986,-1.0432565550639448,-7.743901045684841,0.15682823962711853,-1.3188955669428541,9.771158934568557,-0.003273769139869556,-0.00217974516110979,0.009817477042468103,-10.491398733332787,14.693645186549974,-15.5625
1769643877.171276,-38.298209171180986,-1.0432565550639448,-7.743901045684841,0.15682823962711853,-1.3188955669428541,9.771158934568557,-0.003273769139869556,-0.00217974516110979,0.009817477042468103,-10.491398733332787,14.693645186549974,-15.5625
1769643877.189041,-38.298209171180986,-1.0432565550639448,-7.743901045684841,0.15091500796364396,-1.3627788008712474,9.76408103459459,0.002182299867697403,0.0010895532422314433,-0.002181661564992912,-10.866801197296574,14.006364865247292,-16.0
1769643877.210194,-38.1519653588064,-1.0423294743292697,-7.749955947639585,0.14697981834672738,-1.39198260284275,9.759370771227236,-1.2773532938065676e-06,-0.0021816611910504997,0.007635815477475192,-10.866801197296574,14.006364865247292,-16.0
1769643877.2222514,-38.1519653588064,-1.0423294743292697,-7.749955947639585,0.14697981834672738,-1.39198260284275,9.759370771227236,-1.2773532938065676e-06,-0.0021816611910504997,0.007635815477475192,-10.866801197296574,14.006364865247292,-16.0
1769643877.2340977,-38.1519653588064,-1.0423294743292697,-7.749955947639585,0.14437862054993908,-1.3813114066213141,9.76292636698799,-0.004364599735394806,-0.0021791064844628866,0.009817477042468103,-10.866801197296574,14.006364865247292,-16.0
1769643877.2460015,-38.1519653588064,-1.0423294743292697,-7.749955947639585,0.14437862054993908,-1.3813114066213141,9.76292636698799,-0.004364599735394806,-0.0021791064844628866,0.009817477042468103,-10.866801197296574,14.006364865247292,-16.0
1769643877.2588358,-38.1519653588064,-1.0423294743292697,-7.749955947639585,0.14933777474137702,-1.374213761837537,9.765292576248166,-0.0043633223821009995,2.554706587613135e-06,0.003272492347489368,-10.866179108198775,15.068864683132054,-16.25
1769643877.2720678,-38.1519653588064,-1.0423294743292697,-7.749955947639585,0.14933777474137702,-1.374213761837537,9.765292576248166,-0.0043633223821009995,2.554706587613135e-06,0.003272492347489368,-10.866179108198775,15.068864683132054,-16.25
1769643877.286273,-38.1519653588064,-1.0423294743292697,-7.749955947639585,0.14928704967966444,-1.3795237333734385,9.760177038663885,0.00108891456558454,-0.003273130463222653,0.0,-10.866179108198775,15.068864683132054,-16.25
1769643877.2988734,-38.1519653588064,-1.0423294743292697,-7.749955947639585,0.14928704967966444,-1.3795237333734385,9.760177038663885,0.00108891456558454,-0.003273130463222653,0.0,-10.866179108198775,15.068864683132054,-16.25
1769643877.3165781,-38.1519653588064,-1.0423294743292697,-7.749955947639585,0.1525984038516894,-1.38305941866257,9.756772705545846,0.003273130463222653,0.00108891456558454,0.00545415391248228,-10.866179108198775,15.068864683132054,-16.25
1769643877.3335738,-38.1519653588064,-1.0423294743292697,-7.749955947639585,0.15147654741154282,-1.3519593078384504,9.774577830128598,-0.003273769139869556,-0.00217974516110979,0.004363323129985824,-10.866179108198775,15.068864683132054,-17.0625
1769643877.3513286,-38.1519653588064,-1.0423294743292697,-7.749955947639585,0.15147654741154282,-1.3519593078384504,9.774577830128598,-0.003273769139869556,-0.00217974516110979,0.004363323129985824,-10.866179108198775,15.068864683132054,-17.0625
1769643877.367708,-38.1519653588064,-1.0423294743292697,-7.749955947639585,0.14738485334862422,-1.3312605729477422,9.786426941642146,-0.0021835772209912096,-0.003271214433281943,0.001090830782496456,-10.866179108198775,15.068864683132054,-17.0625
1769643877.3895442,-38.1519653588064,-1.0423294743292697,-7.749955947639585,0.14738485334862422,-1.3312605729477422,9.786426941642146,-0.0021835772209912096,-0.003271214433281943,0.001090830782496456,-10.866179108198775,15.068864683132054,-17.0625
1769643877.406773,-38.1519653588064,-1.0423294743292697,-7.749955947639585,0.14465600101219567,-1.3275211294998708,9.784277057869206,-0.003271214433281943,0.0021835772209912096,-0.00545415391248228,-10.866179108198775,15.068864683132054,-17.0625
1769643877.4228785,-38.1519653588064,-1.0423294743292697,-7.749955947639585,0.14283214607254874,-1.3384130161934669,9.77950122252677,-0.0010927466254659597,-0.0032718531099288463,0.00545415391248228,-10.86639866905682,14.693864747408021,-16.25
1769643877.4348774,-38.1519653588064,-1.0423294743292697,-7.749955947639585,0.14283214607254874,-1.3384130161934669,9.77950122252677,-0.0010927466254659597,-0.0032718531099288463,0.00545415391248228,-10.86639866905682,14.693864747408021,-16.25
1769643877.4508233,-38.1519653588064,-1.0423294743292697,-7.749955947639585,0.15164393164459458,-1.3623928764322755,9.766287622333998,-0.0010908305955252499,6.386766469032838e-07,-0.001090830782496456,-10.86639866905682,14.693864747408021,-16.25
1769643877.4669113,-38.16516092248582,-1.0431814275143632,-7.749527118726838,0.1575041594121807,-1.3850414278165295,9.757494119011293,-0.0010882758889376367,0.004363961058747903,-0.016362461737446838,-10.86639866905682,14.693864747408021,-16.25
1769643877.4872699,-38.16516092248582,-1.0431814275143632,-7.749527118726838,0.1575041594121807,-1.3850414278165295,9.757494119011293,-0.0010882758889376367,0.004363961058747903,-0.016362461737446838,-10.86639866905682,14.693864747408021,-16.25
1769643877.5093024,-38.18063187670192,-1.044247735279682,-7.749524070229038,0.1647491866624344,-1.400115744310112,9.751642140779902,0.005453514300979346,-0.0010940239787597663,-0.011999138607461015,-10.490923018140352,15.506145047285381,-17.0625
1769643877.5219448,-38.18063187670192,-1.044247735279682,-7.749524070229038,0.1695843812030264,-1.386731755607732,9.764473273174389,-0.0032699370799881364,0.004365238412041709,-0.006544984694978736,-10.490923018140352,15.506145047285381,-17.0625
1769643877.5468166,-38.18063187670192,-1.044247735279682,-7.749524070229038,0.1728021491571283,-1.3778248606352483,9.776357360157098,0.00217974516110979,-0.003273769139869556,0.0,-10.490923018140352,15.506145047285381,-17.0625
1769643877.5607383,-38.18063187670192,-1.044247735279682,-7.749524070229038,0.1728021491571283,-1.3778248606352483,9.776357360157098,0.00217974516110979,-0.003273769139869556,0.0,-10.490923018140352,15.506145047285381,-17.0625
1769643877.5733068,-38.18063187670192,-1.044247735279682,-7.749524070229038,0.17494353778575983,-1.3718974215275965,9.78426608729014,6.386766469032838e-07,0.0010908305955252499,-0.007635815477475192,-10.491398733332787,14.693645186549974,-16.6875
1769643877.585241,-38.18063187670192,-1.044247735279682,-7.749524070229038,0.17494353778575983,-1.3718974215275965,9.78426608729014,6.386766469032838e-07,0.0010908305955252499,-0.007635815477475192,-10.491398733332787,14.693645186549974,-16.6875
1769643877.5995426,-38.18063187670192,-1.044247735279682,-7.749524070229038,0.1629862049131434,-1.3712900539562145,9.78952925685091,3.1933832345164184e-06,0.005454152977626249,-0.002181661564992912,-10.491398733332787,14.693645186549974,-16.6875
1769643877.6148214,-38.18063187670192,-1.044247735279682,-7.749524070229038,0.1629862049131434,-1.3712900539562145,9.78952925685091,3.1933832345164184e-06,0.005454152977626249,-0.002181661564992912,-10.491398733332787,14.693645186549974,-16.6875
1769643877.6266587,-7.142857507709661,15.794556491997923,127.02123780602314,0.16841113654266976,-1.3675485806812733,9.782996502278188,0.0032718531099288463,-0.0010927466254659597,0.00545415391248228,-10.491398733332787,14.693645186549974,-16.6875
1769643877.6471195,-7.142857507709661,15.794556491997923,127.02123780602314,0.16841113654266976,-1.3675485806812733,9.782996502278188,0.0032718531099288463,-0.0010927466254659597,0.00545415391248228,-10.491398733332787,14.693645186549974,-16.6875
1769643877.6591222,-38.18063187670192,-1.044247735279682,-7.749524070229038,0.15863896485757015,-1.3683959489527218,9.77864902708569,-0.0032718531099288463,0.0010927466254659597,0.001090830782496456,-10.053679247463368,15.06838896793962,-16.75
1769643877.6727238,-38.18063187670192,-1.044247735279682,-7.749524070229038,0.16217102716532256,-1.3689657387164207,9.762375384080286,-0.0021816611910504997,1.2773532938065676e-06,-0.002181661564992912,-10.053679247463368,15.06838896793962,-16.75
1769643877.6865296,-38.18063187670192,-1.044247735279682,-7.749524070229038,0.16217102716532256,-1.3689657387164207,9.762375384080286,-0.0021816611910504997,1.2773532938065676e-06,-0.002181661564992912,-10.053679247463368,15.06838896793962,-16.75
1769643877.6984107,-38.18063187670192,-1.044247735279682,-7.749524070229038,0.14779601950561747,-1.3693351346979041,9.751545456448694,0.005453514300979346,-0.0010940239787597663,-0.00545415391248228,-10.053679247463368,15.06838896793962,-16.75
1769643877.714613,-38.18063187670192,-1.044247735279682,-7.749524070229038,0.14779601950561747,-1.3693351346979041,9.751545456448694,0.005453514300979346,-0.0010940239787597663,-0.00545415391248228,-10.053679247463368,15.06838896793962,-16.75
1769643877.7308145,-38.18063187670192,-1.044247735279682,-7.749524070229038,0.14157864071791537,-1.3628926998774984,9.764408930832005,0.0021829385443443063,0.002180383837756693,-0.007635815477475192,-9.741398861884718,14.69320606483388,-16.25
1769643877.7430894,-38.18063187670192,-1.044247735279682,-7.749524070229038,0.14157864071791537,-1.3628926998774984,9.764408930832005,0.0021829385443443063,0.002180383837756693,-0.007635815477475192,-9.741398861884718,14.69320606483388,-16.25
1769643877.7547913,-38.18063187670192,-1.044247735279682,-7.749524070229038,0.1374410445873714,-1.3586053314712307,9.772969429339673,0.0021816611910504997,-1.2773532938065676e-06,-0.003272492347489368,-9.741398861884718,14.69320606483388,-16.25
1769643877.7677407,-38.18063187670192,-1.044247735279682,-7.749524070229038,0.13804830010249367,-1.3289932051664919,9.771976122054854,0.0010908305955252499,-6.386766469032838e-07,-0.002181661564992912,-9.741398861884718,14.69320606483388,-16.25
1769643877.7871482,-38.18063187670192,-1.044247735279682,-7.749524070229038,0.13804830010249367,-1.3289932051664919,9.771976122054854,0.0010908305955252499,-6.386766469032838e-07,-0.002181661564992912,-9.741398861884718,14.69320606483388,-16.25
1769643877.7998774,-38.18063187670192,-1.044247735279682,-7.749524070229038,0.14179753299827755,-1.3092886244480713,9.771315087152775,-1.2773532938065676e-06,-0.0021816611910504997,-0.001090830782496456,-10.866581636438527,14.381364800971326,-16.25
1769643877.815433,-38.18063187670192,-1.044247735279682,-7.749524070229038,0.14179753299827755,-1.3092886244480713,9.771315087152775,-1.2773532938065676e-06,-0.0021816611910504997,-0.001090830782496456,-10.866581636438527,14.381364800971326,-16.25
1769643877.8311589,-38.18063187670192,-1.044247735279682,-7.749524070229038,0.14179753299827755,-1.3092886244480713,9.771315087152775,-1.2773532938065676e-06,-0.0021816611910504997,-0.001090830782496456,-10.866581636438527,14.381364800971326,-16.25
1769643877.8468056,-38.15103504143291,-1.335228706997529,-8.59364110708867,0.14428868851223023,-1.3028656683624684,9.774220287517005,0.0021810225144035965,-0.0010921079488190565,-0.006544984694978736,-10.866581636438527,14.381364800971326,-16.25
1769643877.922697,-38.15103504143291,-1.335228706997529,-8.59364110708867,0.14428868851223023,-1.3028656683624684,9.774220287517005,0.0021810225144035965,-0.0010921079488190565,-0.006544984694978736,-10.866581636438527,14.381364800971326,-16.25
1769643877.9377801,-38.18063187670192,-1.044247735279682,-7.749524070229038,0.1459367319374457,-1.315316818506414,9.776153665906186,0.0021835772209912096,0.003271214433281943,-0.004363323129985824,-10.053423093128979,15.505888892950994,-16.0
1769643877.9513402,-38.18063187670192,-1.044247735279682,-7.749524070229038,0.1459367319374457,-1.315316818506414,9.776153665906186,0.0021835772209912096,0.003271214433281943,-0.004363323129985824,-10.053423093128979,15.505888892950994,-16.0
1769643877.9667659,-38.18063187670192,-1.044247735279682,-7.749524070229038,0.15037859756103386,-1.3236048783870067,9.777440307626934,0.0032724917865757496,-1.9160299407098514e-06,-0.004363323129985824,-10.053423093128979,15.505888892950994,-16.0
1769643877.9797063,-38.18063187670192,-1.044247735279682,-7.749524070229038,0.15037859756103386,-1.3236048783870067,9.777440307626934,0.0032724917865757496,-1.9160299407098514e-06,-0.004363323129985824,-10.053423093128979,15.505888892950994,-16.0
1769643878.004976,-38.18063187670192,-1.044247735279682,-7.749524070229038,0.14665026289149816,-1.3190812391554543,9.768261218197404,0.0010914692721721532,0.0010901919188783466,-0.003272492347489368,-10.053423093128979,15.505888892950994,-16.0
1769643878.0168097,-38.18063187670192,-1.044247735279682,-7.749524070229038,0.14665026289149816,-1.3190812391554543,9.768261218197404,0.0010914692721721532,0.0010901919188783466,-0.003272492347489368,-10.053423093128979,15.505888892950994,-16.0
1769643878.0365567,-38.18063187670192,-1.044247735279682,-7.749524070229038,0.14416909781714926,-1.3160708077792176,9.775533083548478,0.0010895532422314433,-0.002182299867697403,-0.003272492347489368,-10.053679247463368,15.06838896793962,-17.0625
1769643878.053593,-38.18063187670192,-1.044247735279682,-7.749524070229038,0.14251595162834213,-1.3174125104610124,9.77368220529292,0.0010908305955252499,-6.386766469032838e-07,-0.001090830782496456,-10.053679247463368,15.06838896793962,-17.0625
1769643878.1064594,-38.18063187670192,-1.044247735279682,-7.749524070229038,0.14251595162834213,-1.3174125104610124,9.77368220529292,0.0010908305955252499,-6.386766469032838e-07,-0.001090830782496456,-10.053679247463368,15.06838896793962,-17.0625
1769643878.1300066,-38.18063187670192,-1.044247735279682,-7.749524070229038,0.14810602357446115,-1.3183093157044616,9.779140689904148,-0.0010908305955252499,6.386766469032838e-07,-0.002181661564992912,-10.05408177570312,14.380889085778891,-15.5625
1769643878.1470926,-38.18063187670192,-1.044247735279682,-7.749524070229038,0.14810602357446115,-1.3183093157044616,9.779140689904148,-0.0010908305955252499,6.386766469032838e-07,-0.002181661564992912,-10.05408177570312,14.380889085778891,-15.5625
1769643878.1692336,-38.18063187670192,-1.044247735279682,-7.749524070229038,0.15517322369162465,-1.3155629769903057,9.782773250437653,-0.0010908305955252499,6.386766469032838e-07,-0.002181661564992912,-10.05408177570312,14.380889085778891,-15.5625
1769643878.1823678,-38.18063187670192,-1.044247735279682,-7.749524070229038,0.15517322369162465,-1.3155629769903057,9.782773250437653,-0.0010908305955252499,6.386766469032838e-07,-0.002181661564992912,-10.05408177570312,14.380889085778891,-15.5625
1769643878.2018821,-38.18063187670192,-1.044247735279682,-7.749524070229038,0.15987636642379888,-1.3137353192546484,9.785190678894342,0.0010901919188783466,-0.0010914692721721532,-0.001090830782496456,-10.491398733332787,14.693645186549974,-15.1875
1769643878.215348,-38.18063187670192,-1.044247735279682,-7.749524070229038,0.15296896342438035,-1.315858268937028,9.786799450527822,0.0010908305955252499,-6.386766469032838e-07,-0.002181661564992912,-10.491398733332787,14.693645186549974,-15.1875
1769643878.2340515,-38.18063187670192,-1.044247735279682,-7.749524070229038,0.15296896342438035,-1.315858268937028,9.786799450527822,0.0010908305955252499,-6.386766469032838e-07,-0.002181661564992912,-10.491398733332787,14.693645186549974,-15.1875
1769643878.2626414,-38.18063187670192,-1.044247735279682,-7.749524070229038,0.14837216388901464,-1.3172710682357498,9.791215181786065,0.0021829385443443063,0.002180383837756693,0.0,-10.491398733332787,14.693645186549974,-15.1875
1769643878.2831688,-38.18063187670192,-1.044247735279682,-7.749524070229038,0.1453130451478441,-1.318211270387047,9.800844025026114,0.0,0.0,0.0,-11.553678990359504,15.069267211371807,-16.375
1769643878.3138974,-38.18063187670192,-1.044247735279682,-7.749524070229038,0.14327723579819054,-1.3188369644159887,9.80725191264114,-0.0010914692721721532,-0.0010901919188783466,0.0,-11.553678990359504,15.069267211371807,-16.375
1769643878.337972,-38.18063187670192,-1.044247735279682,-7.749524070229038,0.14327723579819054,-1.3188369644159887,9.80725191264114,-0.0010914692721721532,-0.0010901919188783466,0.0,-11.553678990359504,15.069267211371807,-16.375
1769643878.3661103,-38.18063187670192,-1.044247735279682,-7.749524070229038,0.14192242741747665,-1.3192533568027895,9.808171178560826,0.0010921079488190565,0.0021810225144035965,-0.002181661564992912,-9.741179301026673,15.068206000557915,-17.0625
1769643878.393493,-38.18063187670192,-1.044247735279682,-7.749524070229038,0.14102081757431278,-1.3195304612847976,9.802092716346866,-0.0010921079488190565,-0.0021810225144035965,0.0,-9.741179301026673,15.068206000557915,-17.0625
1769643878.4226284,-38.18063187670192,-1.044247735279682,-7.749524070229038,0.13707569516137047,-1.319712912673856,9.798047567644348,-0.0021829385443443063,-0.002180383837756693,-0.001090830782496456,-9.741179301026673,15.068206000557915,-17.0625
1769643878.4363008,-38.18063187670192,-1.044247735279682,-7.749524070229038,0.13707569516137047,-1.319712912673856,9.798047567644348,-0.0021829385443443063,-0.002180383837756693,-0.001090830782496456,-9.741179301026673,15.068206000557915,-17.0625
1769643878.4563482,-38.18063187670192,-1.044247735279682,-7.749524070229038,0.13779341285116298,-1.3231814017173755,9.788665342955454,0.0,0.0,-0.001090830782496456,-10.86639866905682,14.693864747408021,-16.0
1769643878.4854126,-38.18063187670192,-1.044247735279682,-7.749524070229038,0.1416161570902466,-1.3254916009785345,9.782421577231313,-6.386766469032838e-07,-0.0010908305955252499,-0.002181661564992912,-10.86639866905682,14.693864747408021,-16.0
1769643878.5116866,-38.18063187670192,-1.044247735279682,-7.749524070229038,0.1416161570902466,-1.3254916009785345,9.782421577231313,-6.386766469032838e-07,-0.0010908305955252499,-0.002181661564992912,-10.86639866905682,14.693864747408021,-16.0
1769643878.5346732,-38.18063187670192,-1.044247735279682,-7.749524070229038,0.14750722036072214,-1.323685860194518,9.778266420889329,-0.0021829385443443063,-0.002180383837756693,0.0,-10.491581700714493,14.381145240113279,-16.75
1769643878.5508397,-38.18063187670192,-1.044247735279682,-7.749524070229038,0.14750722036072214,-1.323685860194518,9.778266420889329,-0.0021829385443443063,-0.002180383837756693,0.0,-10.491581700714493,14.381145240113279,-16.75
1769643878.5703697,-38.18063187670192,-1.044247735279682,-7.749524070229038,0.1480845045740343,-1.319137090191985,9.775501210759877,0.002182299867697403,0.0010895532422314433,0.002181661564992912,-10.491581700714493,14.381145240113279,-16.75
1769643878.5885773,-38.18063187670192,-1.044247735279682,-7.749524070229038,0.14846868076930633,-1.3161099345683898,9.773660994308148,0.0010914692721721532,0.0010901919188783466,-0.004363323129985824,-10.491581700714493,14.381145240113279,-16.75
1769643878.6058311,-38.18063187670192,-1.044247735279682,-7.749524070229038,0.14846868076930633,-1.3161099345683898,9.773660994308148,0.0010914692721721532,0.0010901919188783466,-0.004363323129985824,-10.491581700714493,14.381145240113279,-16.75
1769643878.6303546,-38.18063187670192,-1.044247735279682,-7.749524070229038,0.14872434573573057,-1.314095396316431,9.779126574230725,0.0010921079488190565,0.0021810225144035965,0.001090830782496456,-10.178423071703657,15.505962079903675,-15.5625
1769643878.6492088,-38.18063187670192,-1.044247735279682,-7.749524070229038,0.1488944879149211,-1.3127547436136193,9.78945408002931,-0.002182299867697403,-0.0010895532422314433,0.001090830782496456,-10.178423071703657,15.505962079903675,-15.5625
1769643878.6653404,-38.18063187670192,-1.044247735279682,-7.749524070229038,0.14566260450060112,-1.311860595667712,9.79632691977247,0.0010901919188783466,-0.0010914692721721532,0.001090830782496456,-10.178423071703657,15.505962079903675,-15.5625
1769643878.6849413,-38.18063187670192,-1.044247735279682,-7.749524070229038,0.14566260450060112,-1.311860595667712,9.79632691977247,0.0010901919188783466,-0.0010914692721721532,0.001090830782496456,-10.178423071703657,15.505962079903675,-15.5625
1769643878.7093148,-38.18063187670192,-1.044247735279682,-7.749524070229038,0.14350986364261653,-1.3146106613319564,9.787520271017616,0.0,0.0,0.001090830782496456,-11.554081518599256,14.381767329211078,-16.375
1769643878.7241256,-38.18063187670192,-1.044247735279682,-7.749524070229038,0.14350986364261653,-1.3146106613319564,9.787520271017616,0.0,0.0,0.001090830782496456,-11.554081518599256,14.381767329211078,-16.375
1769643878.7539291,-38.18063187670192,-1.044247735279682,-7.749524070229038,0.14542234978327742,-1.3164427578595226,9.781659544647972,6.386766469032838e-07,0.0010908305955252499,0.003272492347489368,-11.554081518599256,14.381767329211078,-16.375
1769643878.7720165,-38.18063187670192,-1.044247735279682,-7.749524070229038,0.1500401990799759,-1.3176639561810168,9.777759296717578,-0.0021829385443443063,-0.002180383837756693,0.0,-10.866581636438527,14.381364800971326,-17.0625
1769643878.789649,-38.18063187670192,-1.044247735279682,-7.749524070229038,0.1500401990799759,-1.3176639561810168,9.777759296717578,-0.0021829385443443063,-0.002180383837756693,0.0,-10.866581636438527,14.381364800971326,-17.0625
1769643878.8067691,-38.18063187670192,-1.044247735279682,-7.749524070229038,0.14976625651995554,-1.3218198026079926,9.771818613581205,0.0010901919188783466,-0.0010914692721721532,0.0,-10.866581636438527,14.381364800971326,-17.0625
1769643878.8228202,-38.18063187670192,-1.044247735279682,-7.749524070229038,0.1495839508064009,-1.3245854719812986,9.767865155315727,6.386766469032838e-07,0.0010908305955252499,-0.001090830782496456,-10.866581636438527,14.381364800971326,-17.0625
1769643878.836006,-38.18063187670192,-1.044247735279682,-7.749524070229038,0.1495839508064009,-1.3245854719812986,9.767865155315727,6.386766469032838e-07,0.0010908305955252499,-0.001090830782496456,-10.866581636438527,14.381364800971326,-17.0625
1769643878.852966,-38.18063187670192,-1.044247735279682,-7.749524070229038,0.1495839508064009,-1.3245854719812986,9.767865155315727,6.386766469032838e-07,0.0010908305955252499,-0.001090830782496456,-10.866581636438527,14.381364800971326,-17.0625
1769643878.8758566,-38.18063187670192,-1.044247735279682,-7.749524070229038,0.14946850403529233,-1.3163906606528069,9.765234173003075,0.0010914692721721532,0.0010901919188783466,0.002181661564992912,-10.491398733332787,14.693645186549974,-16.75
1769643878.895571,-38.18063187670192,-1.044247735279682,-7.749524070229038,0.14946850403529233,-1.3163906606528069,9.765234173003075,0.0010914692721721532,0.0010901919188783466,0.002181661564992912,-10.491398733332787,14.693645186549974,-16.75
1769643878.9108207,-38.18063187670192,-1.044247735279682,-7.749524070229038,0.1493916754987445,-1.310937105255736,9.766828395371322,6.386766469032838e-07,0.0010908305955252499,-0.001090830782496456,-10.491398733332787,14.693645186549974,-16.75
1769643878.92527,-38.18063187670192,-1.044247735279682,-7.749524070229038,0.1493916754987445,-1.310937105255736,9.766828395371322,6.386766469032838e-07,0.0010908305955252499,-0.001090830782496456,-10.491398733332787,14.693645186549974,-16.75
1769643878.9471774,-38.18063187670192,-1.044247735279682,-7.749524070229038,0.1459954358319443,-1.3073058665109332,9.76788933254876,-0.0021816611910504997,1.2773532938065676e-06,-0.003272492347489368,-11.178898615493516,14.694047714789725,-16.375
1769643878.9630308,-38.18063187670192,-1.044247735279682,-7.749524070229038,0.1459954358319443,-1.3073058665109332,9.76788933254876,-0.0021816611910504997,1.2773532938065676e-06,-0.003272492347489368,-11.178898615493516,14.694047714789725,-16.375
1769643878.9825804,-38.18063187670192,-1.044247735279682,-7.749524070229038,0.1437294006273979,-1.3149246510917372,9.7685953743889,-6.386766469032838e-07,-0.0010908305955252499,0.001090830782496456,-11.178898615493516,14.694047714789725,-16.375
1769643879.0056224,-38.18063187670192,-1.044247735279682,-7.749524070229038,0.14556649064600272,-1.3199968256711199,9.76572012563919,-0.0010914692721721532,-0.0010901919188783466,0.002181661564992912,-11.178898615493516,14.694047714789725,-16.375
1769643879.0271187,-38.18063187670192,-1.044247735279682,-7.749524070229038,0.14556649064600272,-1.3199968256711199,9.76572012563919,-0.0010914692721721532,-0.0010901919188783466,0.002181661564992912,-11.178898615493516,14.694047714789725,-16.375
1769643879.0434506,-38.18063187670192,-1.044247735279682,-7.749524070229038,0.14678709498348616,-1.3267174123277552,9.763806679714891,1.9160299407098514e-06,0.0032724917865757496,0.0,-11.178898615493516,14.694047714789725,-16.375
1769643879.0614634,-38.18063187670192,-1.044247735279682,-7.749524070229038,0.1475993935350375,-1.331189887673874,9.762533302826862,-0.0010895532422314433,0.002182299867697403,-0.001090830782496456,-11.178898615493516,14.694047714789725,-16.375
1769643879.0858986,-38.18063187670192,-1.044247735279682,-7.749524070229038,0.1475993935350375,-1.331189887673874,9.762533302826862,-0.0010895532422314433,0.002182299867697403,-0.001090830782496456,-11.178898615493516,14.694047714789725,-16.375
1769643879.1068087,-38.18063187670192,-1.044247735279682,-7.749524070229038,0.14814192769538354,-1.330821158921934,9.768376108147068,-0.0010921079488190565,-0.0021810225144035965,0.001090830782496456,-10.866179108198775,15.068864683132054,-17.5625
1769643879.1196237,-38.18063187670192,-1.044247735279682,-7.749524070229038,0.1485108123116218,-1.3171953295206538,9.772264429819254,-0.0010882758889376367,0.004363961058747903,-0.02399827721492203,-10.866179108198775,15.068864683132054,-17.5625
1769643879.1388288,-38.193826023345835,-1.0450994360587844,-7.7490948338379155,0.1485108123116218,-1.3171953295206538,9.772264429819254,-0.0010882758889376367,0.004363961058747903,-0.02399827721492203,-10.866179108198775,15.068864683132054,-17.5625
1769643879.173126,-38.193826023345835,-1.0450994360587844,-7.7490948338379155,0.14875630090301722,-1.3081274922645894,9.774852064456693,0.003275046493163363,0.00436140635216029,0.0,-10.866179108198775,15.068864683132054,-17.5625
1769643879.2018204,-38.187229080307816,-1.0446736065131816,-7.749309472289508,0.14558043532911877,-1.2920556559149239,9.769883882987498,-0.0010940239787597663,-0.005453514300979346,0.00545415391248228,-10.491581700714493,14.381145240113279,-16.0
1769643879.232757,-38.187229080307816,-1.0446736065131816,-7.749309472289508,0.14345909807340065,-1.2947404728942318,9.766577613717972,0.0021829385443443063,0.002180383837756693,0.002181661564992912,-10.491581700714493,14.381145240113279,-16.0
1769643879.272754,-38.187229080307816,-1.0446736065131816,-7.749309472289508,0.14345909807340065,-1.2947404728942318,9.766577613717972,0.0021829385443443063,0.002180383837756693,0.002181661564992912,-10.491581700714493,14.381145240113279,-16.0
1769643879.2948663,-38.193826023345835,-1.0450994360587844,-7.7490948338379155,0.13871009488568314,-1.2831447855184979,9.76437732845255,1.2773532938065676e-06,0.0021816611910504997,-0.008726646259971648,-10.178898786896092,14.693462219168268,-16.375
1769643879.3105626,-38.193826023345835,-1.0450994360587844,-7.7490948338379155,0.13871009488568314,-1.2831447855184979,9.76437732845255,1.2773532938065676e-06,0.0021816611910504997,-0.008726646259971648,-10.178898786896092,14.693462219168268,-16.375
1769643879.3320735,-38.193826023345835,-1.0450994360587844,-7.7490948338379155,0.13890263164108904,-1.262049499114686,9.769603286601848,-0.0010908305955252499,6.386766469032838e-07,-0.002181661564992912,-10.178898786896092,14.693462219168268,-16.375
1769643879.3516521,-38.193826023345835,-1.0450994360587844,-7.7490948338379155,0.13890263164108904,-1.262049499114686,9.769603286601848,-0.0010908305955252499,6.386766469032838e-07,-0.002181661564992912,-10.178898786896092,14.693462219168268,-16.375
1769643879.3846061,-38.193826023345835,-1.0450994360587844,-7.7490948338379155,0.13568565156707657,-1.2480088631144806,9.773081103372428,6.386766469032838e-07,0.0010908305955252499,-0.007635815477475192,-10.053679247463368,15.06838896793962,-15.1875
1769643879.403971,-38.193826023345835,-1.0450994360587844,-7.7490948338379155,0.13568565156707657,-1.2480088631144806,9.773081103372428,6.386766469032838e-07,0.0010908305955252499,-0.007635815477475192,-10.053679247463368,15.06838896793962,-15.1875
1769643879.4262798,-38.215467983515175,-1.053186717172928,-7.746597980765462,0.13688989839780194,-1.2386669352487827,9.772050439876171,0.005454791654273153,0.0010876372122907334,-0.002181661564992912,-10.053679247463368,15.06838896793962,-15.1875
1769643879.492139,-38.215467983515175,-1.053186717172928,-7.746597980765462,0.13688989839780194,-1.2386669352487827,9.772050439876171,0.005454791654273153,0.0010876372122907334,-0.002181661564992912,-10.053679247463368,15.06838896793962,-15.1875
1769643879.540837,-38.20887144743407,-1.0527612338331325,-7.746813115609601,0.13429919491918238,-1.3127306952770819,9.751293874588761,-0.005455430330920056,-0.0021784678078159833,0.009817477042468103,-10.49180126157254,14.006145304389245,-17.5
1769643879.5665202,-38.23981544676296,-1.0548934798340994,-7.746803232996356,0.12925741923586745,-1.3151857858058267,9.757551282499932,-0.0032705757566350397,0.0032744078165164595,-0.017453292519943295,-10.49180126157254,14.006145304389245,-17.5
1769643879.6219852,-38.23981544676296,-1.0548934798340994,-7.746803232996356,0.12925741923586745,-1.3151857858058267,9.757551282499932,-0.0032705757566350397,0.0032744078165164595,-0.017453292519943295,-10.49180126157254,14.006145304389245,-17.5
1769643879.7155488,-38.224343171831634,-1.0538273387185886,-7.7468083183617376,0.1225570627049874,-1.3168176625792902,9.76506062927231,-0.002182299867697403,-0.0010895532422314433,0.007635815477475192,-10.491398733332787,14.693645186549974,-16.25
1769643879.7795527,-38.224343171831634,-1.0538273387185886,-7.7468083183617376,0.11141762075494577,-1.3011741855764634,9.776748239079067,0.0010908305955252499,-6.386766469032838e-07,0.0,-10.491398733332787,14.693645186549974,-16.25
1769643879.844771,-38.224343171831634,-1.0538273387185886,-7.7468083183617376,0.11141762075494577,-1.3011741855764634,9.776748239079067,0.0010908305955252499,-6.386766469032838e-07,0.0,-10.491398733332787,14.693645186549974,-16.25
1769643879.8997335,-38.224343171831634,-1.0538273387185886,-7.7468083183617376,0.10400444657291306,-1.29076362638017,9.777835989431669,-0.0010908305955252499,6.386766469032838e-07,0.002181661564992912,-11.178898615493516,14.694047714789725,-16.0
1769643879.9869373,-38.224343171831634,-1.0538273387185886,-7.7468083183617376,0.12917510362272155,-1.2871982535968831,9.775214763433038,0.0010908305955252499,-6.386766469032838e-07,0.003272492347489368,-10.491179172474741,15.068645122274008,-16.75
1769643880.1027887,-38.224343171831634,-1.0538273387185886,-7.7468083183617376,0.14591414342515896,-1.3048962046411812,9.773470366811962,0.0010908305955252499,-6.386766469032838e-07,0.002181661564992912,-10.491179172474741,15.068645122274008,-16.75
1769643880.1874516,-38.224343171831634,-1.0538273387185886,-7.7468083183617376,0.15705378742635448,-1.3166739933620943,9.785689937176102,0.0,0.0,0.001090830782496456,-11.17867905463547,15.06904765051376,-17.0625
1769643880.2402012,-38.224343171831634,-1.0538273387185886,-7.7468083183617376,0.15777883235151377,-1.321162951958867,9.79382192475189,6.386766469032838e-07,0.0010908305955252499,0.002181661564992912,-11.17867905463547,15.06904765051376,-17.0625
1769643880.3071592,-38.224343171831634,-1.0538273387185886,-7.7468083183617376,0.15777883235151377,-1.321162951958867,9.79382192475189,6.386766469032838e-07,0.0010908305955252499,0.002181661564992912,-11.17867905463547,15.06904765051376,-17.0625
1769643880.3654735,-38.224343171831634,-1.0538273387185886,-7.7468083183617376,0.16161036988039926,-1.3174620400404067,9.792543448228686,-0.0010908305955252499,6.386766469032838e-07,0.002181661564992912,-11.17867905463547,15.06904765051376,-16.375
1769643880.4082396,-38.224343171831634,-1.0538273387185886,-7.7468083183617376,0.16161036988039926,-1.3174620400404067,9.792543448228686,-0.0010908305955252499,6.386766469032838e-07,0.002181661564992912,-11.17867905463547,15.06904765051376,-16.375
1769643880.4262836,-38.224343171831634,-1.0538273387185886,-7.7468083183617376,0.16081510417083525,-1.3149971659523085,9.791692636384013,-1.9160299407098514e-06,-0.0032724917865757496,0.001090830782496456,-10.178898786896092,14.693462219168268,-15.5625
1769643880.442435,-38.224343171831634,-1.0538273387185886,-7.7468083183617376,0.16081510417083525,-1.3149971659523085,9.791692636384013,-1.9160299407098514e-06,-0.0032724917865757496,0.001090830782496456,-10.178898786896092,14.693462219168268,-15.5625
1769643880.4789138,-38.224343171831634,-1.0538273387185886,-7.7468083183617376,0.1636309748587791,-1.3133587783293847,9.791126430605575,0.0,0.0,0.002181661564992912,-10.178898786896092,14.693462219168268,-15.5625
1769643880.524614,-38.224343171831634,-1.0538273387185886,-7.7468083183617376,0.1636309748587791,-1.3133587783293847,9.791126430605575,0.0,0.0,0.002181661564992912,-10.178898786896092,14.693462219168268,-15.5625
1769643880.548464,-38.224343171831634,-1.0538273387185886,-7.7468083183617376,0.1636309748587791,-1.3133587783293847,9.791126430605575,0.0,0.0,0.002181661564992912,-10.178898786896092,14.693462219168268,-15.5625
1769643880.6135197,-38.224343171831634,-1.0538273387185886,-7.7468083183617376,0.15545977920310364,-1.3289881296933372,9.790749626984956,-0.0021816611910504997,1.2773532938065676e-06,-0.00545415391248228,-10.178898786896092,14.693462219168268,-17.5625
1769643880.666576,-38.20801458455215,-1.0639120863694784,-7.757728355154823,0.17008281383495,-1.3561265953940937,9.790498868384606,0.003273769139869556,0.00217974516110979,0.013089969389957472,-10.178898786896092,14.693462219168268,-17.5625
1769643880.7596877,-38.20801458455215,-1.0639120863694784,-7.757728355154823,0.17008281383495,-1.3561265953940937,9.790498868384606,0.003273769139869556,0.00217974516110979,0.013089969389957472,-10.178898786896092,14.693462219168268,-17.5625
1769643880.8141124,-38.20801458455215,-1.0639120863694784,-7.757728355154823,0.17008281383495,-1.3561265953940937,9.790498868384606,0.003273769139869556,0.00217974516110979,0.013089969389957472,-10.178898786896092,14.693462219168268,-17.5625
1769643880.8548949,-38.14458508457027,-1.021672995585218,-7.734499180350358,0.15974361322869204,-1.3741751898718741,9.766916209385995,-0.002184854574285016,-0.005452875624332443,-0.0272707695624114,-10.491581700714493,14.381145240113279,-18.0
1769643880.898962,-38.14458508457027,-1.021672995585218,-7.734499180350358,0.15974361322869204,-1.3741751898718741,9.766916209385995,-0.002184854574285016,-0.005452875624332443,-0.0272707695624114,-10.491581700714493,14.381145240113279,-18.0
1769643880.9315474,-38.14458508457027,-1.021672995585218,-7.734499180350358,0.15974361322869204,-1.3741751898718741,9.766916209385995,-0.002184854574285016,-0.005452875624332443,-0.0272707695624114,-10.491581700714493,14.381145240113279,-18.0
1769643880.963608,nan,nan,nan,0.12614714825992906,-1.3092331034137146,9.654213973745719,0.0,0.0,0.0,0.0,0.0,0.0
1769643881.0122285,nan,nan,nan,0.12614714825992906,-1.3092331034137146,9.654213973745719,0.0,0.0,0.0,0.0,0.0,0.0
1769643881.03444,nan,nan,nan,0.12614714825992906,-1.3092331034137146,9.654213973745719,0.0,0.0,0.0,0.0,0.0,0.0
1769643881.0640428,nan,nan,nan,0.12614714825992906,-1.3092331034137146,9.654213973745719,0.0,0.0,0.0,0.0,0.0,0.0
1769643881.1021028,nan,nan,nan,0.08394951801100478,-0.871280005229784,7.981658120086028,0.0,0.0,0.0,-10.866581636438527,14.381364800971326,-17.5
1769643881.1184075,nan,nan,nan,0.08394951801100478,-0.871280005229784,7.981658120086028,0.0,0.0,0.0,-10.866581636438527,14.381364800971326,-17.5
1769643881.1508634,nan,nan,nan,0.08394951801100478,-0.871280005229784,7.981658120086028,0.0,0.0,0.0,-10.866581636438527,14.381364800971326,-17.5
1769643881.2053893,nan,nan,nan,0.08394951801100478,-0.871280005229784,7.981658120086028,0.0,0.0,0.0,-10.866581636438527,14.381364800971326,-17.5
1769643881.2189047,nan,nan,nan,0.08394951801100478,-0.871280005229784,7.981658120086028,0.0,0.0,0.0,-10.866581636438527,14.381364800971326,-17.5
1769643881.2333646,nan,nan,nan,0.08394951801100478,-0.871280005229784,7.981658120086028,0.0,0.0,0.0,-10.866581636438527,14.381364800971326,-17.5
1769643881.2595181,nan,nan,nan,0.08394951801100478,-0.871280005229784,7.981658120086028,0.0,0.0,0.0,-10.866581636438527,14.381364800971326,-17.5
1769643881.2913551,nan,nan,nan,0.08394951801100478,-0.871280005229784,7.981658120086028,0.0,0.0,0.0,-10.866581636438527,14.381364800971326,-17.5
1769643881.3442893,nan,nan,nan,0.08394951801100478,-0.871280005229784,7.981658120086028,0.0,0.0,0.0,-10.866581636438527,14.381364800971326,-17.5
1769643881.3846002,nan,nan,nan,0.08394951801100478,-0.871280005229784,7.981658120086028,0.0,0.0,0.0,-10.866581636438527,14.381364800971326,-17.5
1769643881.4271307,nan,nan,nan,0.08394951801100478,-0.871280005229784,7.981658120086028,0.0,0.0,0.0,-10.866581636438527,14.381364800971326,-17.5
1769643881.4455302,nan,nan,nan,0.08394951801100478,-0.871280005229784,7.981658120086028,0.0,0.0,0.0,-10.866581636438527,14.381364800971326,-17.5
1769643881.5079346,nan,nan,nan,0.08394951801100478,-0.871280005229784,7.981658120086028,0.0,0.0,0.0,-10.866581636438527,14.381364800971326,-17.5
1769643881.5432115,nan,nan,nan,0.08394951801100478,-0.871280005229784,7.981658120086028,0.0,0.0,0.0,-10.866581636438527,14.381364800971326,-17.5
1769643881.6270792,nan,nan,nan,0.08394951801100478,-0.871280005229784,7.981658120086028,0.0,0.0,0.0,-10.866581636438527,14.381364800971326,-17.5
1769643881.677876,nan,nan,nan,0.08394951801100478,-0.871280005229784,7.981658120086028,0.0,0.0,0.0,-10.866581636438527,14.381364800971326,-17.5
1769643881.714158,nan,nan,nan,0.08394951801100478,-0.871280005229784,7.981658120086028,0.0,0.0,0.0,-10.866581636438527,14.381364800971326,-17.5
1769643881.761322,nan,nan,nan,0.08394951801100478,-0.871280005229784,7.981658120086028,0.0,0.0,0.0,-10.866581636438527,14.381364800971326,-17.5
1769643881.8115427,nan,nan,nan,0.08394951801100478,-0.871280005229784,7.981658120086028,0.0,0.0,0.0,-10.866581636438527,14.381364800971326,-17.5
1769643881.858134,nan,nan,nan,0.08394951801100478,-0.871280005229784,7.981658120086028,0.0,0.0,0.0,-10.866581636438527,14.381364800971326,-17.5
1769643881.9006145,nan,nan,nan,0.08394951801100478,-0.871280005229784,7.981658120086028,0.0,0.0,0.0,-10.866581636438527,14.381364800971326,-17.5
1769643881.9277775,nan,nan,nan,0.08394951801100478,-0.871280005229784,7.981658120086028,0.0,0.0,0.0,-10.866581636438527,14.381364800971326,-17.5
1769643881.9642944,nan,nan,nan,0.08394951801100478,-0.871280005229784,7.981658120086028,0.0,0.0,0.0,-10.866581636438527,14.381364800971326,-17.5
1769643882.0215797,nan,nan,nan,0.08394951801100478,-0.871280005229784,7.981658120086028,0.0,0.0,0.0,-10.866581636438527,14.381364800971326,-17.5
1769643882.076821,nan,nan,nan,0.08394951801100478,-0.871280005229784,7.981658120086028,0.0,0.0,0.0,-10.866581636438527,14.381364800971326,-17.5
1769643882.1909215,nan,nan,nan,0.08394951801100478,-0.871280005229784,7.981658120086028,0.0,0.0,0.0,-10.866581636438527,14.381364800971326,-17.5
1769643882.2496853,nan,nan,nan,0.08394951801100478,-0.871280005229784,7.981658120086028,0.0,0.0,0.0,-10.866581636438527,14.381364800971326,-17.5
1769643882.3237932,nan,nan,nan,0.08394951801100478,-0.871280005229784,7.981658120086028,0.0,0.0,0.0,-10.866581636438527,14.381364800971326,-17.5
1769643882.3574708,nan,nan,nan,0.08394951801100478,-0.871280005229784,7.981658120086028,0.0,0.0,0.0,-10.866581636438527,14.381364800971326,-17.5
1769643882.384976,nan,nan,nan,0.08394951801100478,-0.871280005229784,7.981658120086028,0.0,0.0,0.0,-10.866581636438527,14.381364800971326,-17.5
1769643882.4329715,nan,nan,nan,0.08394951801100478,-0.871280005229784,7.981658120086028,0.0,0.0,0.0,-10.866581636438527,14.381364800971326,-17.5
1769643882.4577565,nan,nan,nan,0.08394951801100478,-0.871280005229784,7.981658120086028,0.0,0.0,0.0,-10.866581636438527,14.381364800971326,-17.5
1769643882.48378,nan,nan,nan,0.08394951801100478,-0.871280005229784,7.981658120086028,0.0,0.0,0.0,-10.866581636438527,14.381364800971326,-17.5
1769643882.5562837,nan,nan,nan,0.08394951801100478,-0.871280005229784,7.981658120086028,0.0,0.0,0.0,-10.866581636438527,14.381364800971326,-17.5
1769643882.5868504,nan,nan,nan,0.08394951801100478,-0.871280005229784,7.981658120086028,0.0,0.0,0.0,-10.866581636438527,14.381364800971326,-17.5
1769643882.6430247,nan,nan,nan,0.08394951801100478,-0.871280005229784,7.981658120086028,0.0,0.0,0.0,-10.866581636438527,14.381364800971326,-17.5
1769643882.7014344,nan,nan,nan,0.08394951801100478,-0.871280005229784,7.981658120086028,0.0,0.0,0.0,-10.866581636438527,14.381364800971326,-17.5
1769643882.7519774,nan,nan,nan,0.08394951801100478,-0.871280005229784,7.981658120086028,0.0,0.0,0.0,-10.866581636438527,14.381364800971326,-17.5
1769643882.7743483,nan,nan,nan,0.08394951801100478,-0.871280005229784,7.981658120086028,0.0,0.0,0.0,-10.866581636438527,14.381364800971326,-17.5
1769643882.7939425,nan,nan,nan,0.08394951801100478,-0.871280005229784,7.981658120086028,0.0,0.0,0.0,-10.866581636438527,14.381364800971326,-17.5
1769643882.8327057,nan,nan,nan,0.08394951801100478,-0.871280005229784,7.981658120086028,0.0,0.0,0.0,-10.866581636438527,14.381364800971326,-17.5
1769643882.8848968,nan,nan,nan,0.08394951801100478,-0.871280005229784,7.981658120086028,0.0,0.0,0.0,-10.866581636438527,14.381364800971326,-17.5
1769643882.9092257,nan,nan,nan,0.08394951801100478,-0.871280005229784,7.981658120086028,0.0,0.0,0.0,-10.866581636438527,14.381364800971326,-17.5
1769643882.9602077,nan,nan,nan,0.08394951801100478,-0.871280005229784,7.981658120086028,0.0,0.0,0.0,-10.866581636438527,14.381364800971326,-17.5
1769643882.9801452,nan,nan,nan,0.08394951801100478,-0.871280005229784,7.981658120086028,0.0,0.0,0.0,-10.866581636438527,14.381364800971326,-17.5
1769643883.0582845,nan,nan,nan,0.08394951801100478,-0.871280005229784,7.981658120086028,0.0,0.0,0.0,-10.866581636438527,14.381364800971326,-17.5
1769643883.0951815,nan,nan,nan,0.08394951801100478,-0.871280005229784,7.981658120086028,0.0,0.0,0.0,-10.866581636438527,14.381364800971326,-17.5
1769643883.2246182,nan,nan,nan,0.08394951801100478,-0.871280005229784,7.981658120086028,0.0,0.0,0.0,-10.866581636438527,14.381364800971326,-17.5
1769643883.2933302,nan,nan,nan,0.08394951801100478,-0.871280005229784,7.981658120086028,0.0,0.0,0.0,-10.866581636438527,14.381364800971326,-17.5
1769643883.318205,nan,nan,nan,0.08394951801100478,-0.871280005229784,7.981658120086028,0.0,0.0,0.0,-10.866581636438527,14.381364800971326,-17.5
1769643883.3890755,nan,nan,nan,0.08394951801100478,-0.871280005229784,7.981658120086028,0.0,0.0,0.0,-10.866581636438527,14.381364800971326,-17.5
1769643883.5311756,nan,nan,nan,0.08394951801100478,-0.871280005229784,7.981658120086028,0.0,0.0,0.0,-10.866581636438527,14.381364800971326,-17.5
1769643883.572654,nan,nan,nan,0.08394951801100478,-0.871280005229784,7.981658120086028,0.0,0.0,0.0,-10.866581636438527,14.381364800971326,-17.5
1769643883.629069,nan,nan,nan,0.08394951801100478,-0.871280005229784,7.981658120086028,0.0,0.0,0.0,-10.866581636438527,14.381364800971326,-17.5
1769643883.6676779,nan,nan,nan,0.08394951801100478,-0.871280005229784,7.981658120086028,0.0,0.0,0.0,-10.866581636438527,14.381364800971326,-17.5
1769643883.725171,nan,nan,nan,0.08394951801100478,-0.871280005229784,7.981658120086028,0.0,0.0,0.0,-10.866581636438527,14.381364800971326,-17.5
1769643883.7798123,nan,nan,nan,0.08394951801100478,-0.871280005229784,7.981658120086028,0.0,0.0,0.0,-10.866581636438527,14.381364800971326,-17.5
1769643883.8298545,nan,nan,nan,0.08394951801100478,-0.871280005229784,7.981658120086028,0.0,0.0,0.0,-10.866581636438527,14.381364800971326,-17.5
1769643883.873841,nan,nan,nan,0.08394951801100478,-0.871280005229784,7.981658120086028,0.0,0.0,0.0,-10.866581636438527,14.381364800971326,-17.5
1769643883.9428475,nan,nan,nan,0.08394951801100478,-0.871280005229784,7.981658120086028,0.0,0.0,0.0,-10.866581636438527,14.381364800971326,-17.5
1769643883.9888866,nan,nan,nan,0.08394951801100478,-0.871280005229784,7.981658120086028,0.0,0.0,0.0,-10.866581636438527,14.381364800971326,-17.5
1769643884.0647693,nan,nan,nan,0.08394951801100478,-0.871280005229784,7.981658120086028,0.0,0.0,0.0,-10.866581636438527,14.381364800971326,-17.5
1769643884.1003828,nan,nan,nan,0.08394951801100478,-0.871280005229784,7.981658120086028,0.0,0.0,0.0,-10.866581636438527,14.381364800971326,-17.5
1769643884.1188269,nan,nan,nan,0.08394951801100478,-0.871280005229784,7.981658120086028,0.0,0.0,0.0,-10.866581636438527,14.381364800971326,-17.5
1769643884.1411645,nan,nan,nan,0.08394951801100478,-0.871280005229784,7.981658120086028,0.0,0.0,0.0,-10.866581636438527,14.381364800971326,-17.5
1769643884.1860147,nan,nan,nan,0.08394951801100478,-0.871280005229784,7.981658120086028,0.0,0.0,0.0,-10.866581636438527,14.381364800971326,-17.5
1769643884.2276244,nan,nan,nan,0.08394951801100478,-0.871280005229784,7.981658120086028,0.0,0.0,0.0,-10.866581636438527,14.381364800971326,-17.5
1769643884.2821977,nan,nan,nan,0.08394951801100478,-0.871280005229784,7.981658120086028,0.0,0.0,0.0,-10.866581636438527,14.381364800971326,-17.5
1769643884.3648212,nan,nan,nan,0.08394951801100478,-0.871280005229784,7.981658120086028,0.0,0.0,0.0,-10.866581636438527,14.381364800971326,-17.5
1769643884.425513,nan,nan,nan,0.08394951801100478,-0.871280005229784,7.981658120086028,0.0,0.0,0.0,-10.866581636438527,14.381364800971326,-17.5
1769643884.453576,nan,nan,nan,0.08394951801100478,-0.871280005229784,7.981658120086028,0.0,0.0,0.0,-10.866581636438527,14.381364800971326,-17.5
1769643884.5191672,nan,nan,nan,0.08394951801100478,-0.871280005229784,7.981658120086028,0.0,0.0,0.0,-10.866581636438527,14.381364800971326,-17.5
1769643884.5662596,nan,nan,nan,0.08394951801100478,-0.871280005229784,7.981658120086028,0.0,0.0,0.0,-10.866581636438527,14.381364800971326,-17.5
1769643884.6141198,nan,nan,nan,0.08394951801100478,-0.871280005229784,7.981658120086028,0.0,0.0,0.0,-10.866581636438527,14.381364800971326,-17.5
1769643884.654087,nan,nan,nan,0.08394951801100478,-0.871280005229784,7.981658120086028,0.0,0.0,0.0,-10.866581636438527,14.381364800971326,-17.5
1769643884.6733127,nan,nan,nan,0.08394951801100478,-0.871280005229784,7.981658120086028,0.0,0.0,0.0,-10.866581636438527,14.381364800971326,-17.5
1769643884.72006,nan,nan,nan,0.08394951801100478,-0.871280005229784,7.981658120086028,0.0,0.0,0.0,-10.866581636438527,14.381364800971326,-17.5
1769643884.740777,nan,nan,nan,0.08394951801100478,-0.871280005229784,7.981658120086028,0.0,0.0,0.0,-10.866581636438527,14.381364800971326,-17.5
1769643884.7566993,nan,nan,nan,0.08394951801100478,-0.871280005229784,7.981658120086028,0.0,0.0,0.0,-10.866581636438527,14.381364800971326,-17.5
1769643884.7736893,nan,nan,nan,0.08394951801100478,-0.871280005229784,7.981658120086028,0.0,0.0,0.0,-10.866581636438527,14.381364800971326,-17.5
1769643884.7993324,nan,nan,nan,0.08394951801100478,-0.871280005229784,7.981658120086028,0.0,0.0,0.0,-10.866581636438527,14.381364800971326,-17.5
1769643884.8364315,nan,nan,nan,0.08394951801100478,-0.871280005229784,7.981658120086028,0.0,0.0,0.0,-10.866581636438527,14.381364800971326,-17.5
1769643884.8634496,nan,nan,nan,0.08394951801100478,-0.871280005229784,7.981658120086028,0.0,0.0,0.0,-10.866581636438527,14.381364800971326,-17.5
1769643884.8914695,nan,nan,nan,0.08394951801100478,-0.871280005229784,7.981658120086028,0.0,0.0,0.0,-10.866581636438527,14.381364800971326,-17.5
1769643884.9470944,nan,nan,nan,0.08394951801100478,-0.871280005229784,7.981658120086028,0.0,0.0,0.0,-10.866581636438527,14.381364800971326,-17.5
1769643884.9845667,nan,nan,nan,0.08394951801100478,-0.871280005229784,7.981658120086028,0.0,0.0,0.0,-10.866581636438527,14.381364800971326,-17.5
1769643885.0469797,nan,nan,nan,0.08394951801100478,-0.871280005229784,7.981658120086028,0.0,0.0,0.0,-10.866581636438527,14.381364800971326,-17.5
1769643885.0909038,nan,nan,nan,0.08394951801100478,-0.871280005229784,7.981658120086028,0.0,0.0,0.0,-10.866581636438527,14.381364800971326,-17.5
1769643885.130854,nan,nan,nan,0.08394951801100478,-0.871280005229784,7.981658120086028,0.0,0.0,0.0,-10.866581636438527,14.381364800971326,-17.5
1769643885.1618743,nan,nan,nan,0.08394951801100478,-0.871280005229784,7.981658120086028,0.0,0.0,0.0,-10.866581636438527,14.381364800971326,-17.5
1769643885.1910014,nan,nan,nan,0.08394951801100478,-0.871280005229784,7.981658120086028,0.0,0.0,0.0,-10.866581636438527,14.381364800971326,-17.5
1769643885.2288814,nan,nan,nan,0.08394951801100478,-0.871280005229784,7.981658120086028,0.0,0.0,0.0,-10.866581636438527,14.381364800971326,-17.5
1769643885.261842,nan,nan,nan,0.08394951801100478,-0.871280005229784,7.981658120086028,0.0,0.0,0.0,-10.866581636438527,14.381364800971326,-17.5
1769643885.2963796,nan,nan,nan,0.08394951801100478,-0.871280005229784,7.981658120086028,0.0,0.0,0.0,-10.866581636438527,14.381364800971326,-17.5
1769643885.3652651,nan,nan,nan,0.08394951801100478,-0.871280005229784,7.981658120086028,0.0,0.0,0.0,-10.866581636438527,14.381364800971326,-17.5
1769643885.389041,nan,nan,nan,0.08394951801100478,-0.871280005229784,7.981658120086028,0.0,0.0,0.0,-10.866581636438527,14.381364800971326,-17.5
1769643885.4062397,nan,nan,nan,0.08394951801100478,-0.871280005229784,7.981658120086028,0.0,0.0,0.0,-10.866581636438527,14.381364800971326,-17.5
1769643885.4708676,nan,nan,nan,0.08394951801100478,-0.871280005229784,7.981658120086028,0.0,0.0,0.0,-10.866581636438527,14.381364800971326,-17.5
1769643885.5216832,nan,nan,nan,0.08394951801100478,-0.871280005229784,7.981658120086028,0.0,0.0,0.0,-10.866581636438527,14.381364800971326,-17.5
1769643885.5779173,nan,nan,nan,0.08394951801100478,-0.871280005229784,7.981658120086028,0.0,0.0,0.0,-10.866581636438527,14.381364800971326,-17.5
1769643885.5951848,nan,nan,nan,0.08394951801100478,-0.871280005229784,7.981658120086028,0.0,0.0,0.0,-10.866581636438527,14.381364800971326,-17.5
1769643885.647253,nan,nan,nan,0.08394951801100478,-0.871280005229784,7.981658120086028,0.0,0.0,0.0,-10.866581636438527,14.381364800971326,-17.5
1769643885.6909685,nan,nan,nan,0.08394951801100478,-0.871280005229784,7.981658120086028,0.0,0.0,0.0,-10.866581636438527,14.381364800971326,-17.5
1769643885.7144644,nan,nan,nan,0.08394951801100478,-0.871280005229784,7.981658120086028,0.0,0.0,0.0,-10.866581636438527,14.381364800971326,-17.5
1769643885.8139951,nan,nan,nan,0.08394951801100478,-0.871280005229784,7.981658120086028,0.0,0.0,0.0,-10.866581636438527,14.381364800971326,-17.5
1769643885.8848155,nan,nan,nan,0.08394951801100478,-0.871280005229784,7.981658120086028,0.0,0.0,0.0,-10.866581636438527,14.381364800971326,-17.5
1769643885.9554124,nan,nan,nan,0.08394951801100478,-0.871280005229784,7.981658120086028,0.0,0.0,0.0,-10.866581636438527,14.381364800971326,-17.5
1769643885.9740784,nan,nan,nan,0.08394951801100478,-0.871280005229784,7.981658120086028,0.0,0.0,0.0,-10.866581636438527,14.381364800971326,-17.5
1769643885.991797,nan,nan,nan,0.08394951801100478,-0.871280005229784,7.981658120086028,0.0,0.0,0.0,-10.866581636438527,14.381364800971326,-17.5
1769643886.0440228,nan,nan,nan,0.08394951801100478,-0.871280005229784,7.981658120086028,0.0,0.0,0.0,-10.866581636438527,14.381364800971326,-17.5
1769643886.0840652,nan,nan,nan,0.08394951801100478,-0.871280005229784,7.981658120086028,0.0,0.0,0.0,-10.866581636438527,14.381364800971326,-17.5
1769643886.102468,nan,nan,nan,0.08394951801100478,-0.871280005229784,7.981658120086028,0.0,0.0,0.0,-10.866581636438527,14.381364800971326,-17.5
1769643886.1308792,nan,nan,nan,0.08394951801100478,-0.871280005229784,7.981658120086028,0.0,0.0,0.0,-10.866581636438527,14.381364800971326,-17.5
1769643886.1643088,nan,nan,nan,0.08394951801100478,-0.871280005229784,7.981658120086028,0.0,0.0,0.0,-10.866581636438527,14.381364800971326,-17.5
1769643886.1834044,nan,nan,nan,0.08394951801100478,-0.871280005229784,7.981658120086028,0.0,0.0,0.0,-10.866581636438527,14.381364800971326,-17.5
1769643886.204017,nan,nan,nan,0.08394951801100478,-0.871280005229784,7.981658120086028,0.0,0.0,0.0,-10.866581636438527,14.381364800971326,-17.5
1769643886.2717466,nan,nan,nan,0.08394951801100478,-0.871280005229784,7.981658120086028,0.0,0.0,0.0,-10.866581636438527,14.381364800971326,-17.5
1769643886.29646,nan,nan,nan,0.08394951801100478,-0.871280005229784,7.981658120086028,0.0,0.0,0.0,-10.866581636438527,14.381364800971326,-17.5
1769643886.3267949,nan,nan,nan,0.08394951801100478,-0.871280005229784,7.981658120086028,0.0,0.0,0.0,-10.866581636438527,14.381364800971326,-17.5
1769643886.3531592,nan,nan,nan,0.08394951801100478,-0.871280005229784,7.981658120086028,0.0,0.0,0.0,-10.866581636438527,14.381364800971326,-17.5
1769643886.4175878,nan,nan,nan,0.08394951801100478,-0.871280005229784,7.981658120086028,0.0,0.0,0.0,-10.866581636438527,14.381364800971326,-17.5
1769643886.4797175,nan,nan,nan,0.08394951801100478,-0.871280005229784,7.981658120086028,0.0,0.0,0.0,-10.866581636438527,14.381364800971326,-17.5
1769643886.5188353,nan,nan,nan,0.08394951801100478,-0.871280005229784,7.981658120086028,0.0,0.0,0.0,-10.866581636438527,14.381364800971326,-17.5
1769643886.5455081,nan,nan,nan,0.08394951801100478,-0.871280005229784,7.981658120086028,0.0,0.0,0.0,-10.866581636438527,14.381364800971326,-17.5
1769643886.623939,nan,nan,nan,0.08394951801100478,-0.871280005229784,7.981658120086028,0.0,0.0,0.0,-10.866581636438527,14.381364800971326,-17.5
1769643886.695058,nan,nan,nan,0.08394951801100478,-0.871280005229784,7.981658120086028,0.0,0.0,0.0,-10.866581636438527,14.381364800971326,-17.5
1769643886.7319057,nan,nan,nan,0.08394951801100478,-0.871280005229784,7.981658120086028,0.0,0.0,0.0,-10.866581636438527,14.381364800971326,-17.5
1769643886.750541,nan,nan,nan,0.08394951801100478,-0.871280005229784,7.981658120086028,0.0,0.0,0.0,-10.866581636438527,14.381364800971326,-17.5
1769643886.76802,nan,nan,nan,0.08394951801100478,-0.871280005229784,7.981658120086028,0.0,0.0,0.0,-10.866581636438527,14.381364800971326,-17.5
1769643886.8044028,nan,nan,nan,0.08394951801100478,-0.871280005229784,7.981658120086028,0.0,0.0,0.0,-10.866581636438527,14.381364800971326,-17.5
1769643886.8315377,nan,nan,nan,0.08394951801100478,-0.871280005229784,7.981658120086028,0.0,0.0,0.0,-10.866581636438527,14.381364800971326,-17.5
1769643886.8640468,nan,nan,nan,0.08394951801100478,-0.871280005229784,7.981658120086028,0.0,0.0,0.0,-10.866581636438527,14.381364800971326,-17.5
1769643886.9127362,nan,nan,nan,0.08394951801100478,-0.871280005229784,7.981658120086028,0.0,0.0,0.0,-10.866581636438527,14.381364800971326,-17.5
1769643886.9527736,nan,nan,nan,0.08394951801100478,-0.871280005229784,7.981658120086028,0.0,0.0,0.0,-10.866581636438527,14.381364800971326,-17.5
1769643886.973725,nan,nan,nan,0.08394951801100478,-0.871280005229784,7.981658120086028,0.0,0.0,0.0,-10.866581636438527,14.381364800971326,-17.5
1769643886.991516,nan,nan,nan,0.08394951801100478,-0.871280005229784,7.981658120086028,0.0,0.0,0.0,-10.866581636438527,14.381364800971326,-17.5
1769643887.0202901,nan,nan,nan,0.08394951801100478,-0.871280005229784,7.981658120086028,0.0,0.0,0.0,-10.866581636438527,14.381364800971326,-17.5
1769643887.059839,nan,nan,nan,0.08394951801100478,-0.871280005229784,7.981658120086028,0.0,0.0,0.0,-10.866581636438527,14.381364800971326,-17.5
1769643887.117797,nan,nan,nan,0.08394951801100478,-0.871280005229784,7.981658120086028,0.0,0.0,0.0,-10.866581636438527,14.381364800971326,-17.5
1769643887.1917424,nan,nan,nan,0.08394951801100478,-0.871280005229784,7.981658120086028,0.0,0.0,0.0,-10.866581636438527,14.381364800971326,-17.5
1769643887.250249,nan,nan,nan,0.08394951801100478,-0.871280005229784,7.981658120086028,0.0,0.0,0.0,-10.866581636438527,14.381364800971326,-17.5
1769643887.2792146,nan,nan,nan,0.08394951801100478,-0.871280005229784,7.981658120086028,0.0,0.0,0.0,-10.866581636438527,14.381364800971326,-17.5
1769643887.3140976,nan,nan,nan,0.08394951801100478,-0.871280005229784,7.981658120086028,0.0,0.0,0.0,-10.866581636438527,14.381364800971326,-17.5
1769643887.3319373,nan,nan,nan,0.08394951801100478,-0.871280005229784,7.981658120086028,0.0,0.0,0.0,-10.866581636438527,14.381364800971326,-17.5
1769643887.3483906,nan,nan,nan,0.08394951801100478,-0.871280005229784,7.981658120086028,0.0,0.0,0.0,-10.866581636438527,14.381364800971326,-17.5
1769643887.3956954,nan,nan,nan,0.08394951801100478,-0.871280005229784,7.981658120086028,0.0,0.0,0.0,-10.866581636438527,14.381364800971326,-17.5
1769643887.4271157,nan,nan,nan,0.08394951801100478,-0.871280005229784,7.981658120086028,0.0,0.0,0.0,-10.866581636438527,14.381364800971326,-17.5
1769643887.4521573,nan,nan,nan,0.08394951801100478,-0.871280005229784,7.981658120086028,0.0,0.0,0.0,-10.866581636438527,14.381364800971326,-17.5
1769643887.4689324,nan,nan,nan,0.08394951801100478,-0.871280005229784,7.981658120086028,0.0,0.0,0.0,-10.866581636438527,14.381364800971326,-17.5
1769643887.4869568,nan,nan,nan,0.08394951801100478,-0.871280005229784,7.981658120086028,0.0,0.0,0.0,-10.866581636438527,14.381364800971326,-17.5
1769643887.533018,nan,nan,nan,0.08394951801100478,-0.871280005229784,7.981658120086028,0.0,0.0,0.0,-10.866581636438527,14.381364800971326,-17.5
1769643887.591464,nan,nan,nan,0.08394951801100478,-0.871280005229784,7.981658120086028,0.0,0.0,0.0,-10.866581636438527,14.381364800971326,-17.5
1769643887.6166575,nan,nan,nan,0.08394951801100478,-0.871280005229784,7.981658120086028,0.0,0.0,0.0,-10.866581636438527,14.381364800971326,-17.5
1769643887.6358197,nan,nan,nan,0.08394951801100478,-0.871280005229784,7.981658120086028,0.0,0.0,0.0,-10.866581636438527,14.381364800971326,-17.5
1769643887.6839545,nan,nan,nan,0.08394951801100478,-0.871280005229784,7.981658120086028,0.0,0.0,0.0,-10.866581636438527,14.381364800971326,-17.5
1769643887.740448,nan,nan,nan,0.08394951801100478,-0.871280005229784,7.981658120086028,0.0,0.0,0.0,-10.866581636438527,14.381364800971326,-17.5
1769643887.8013146,nan,nan,nan,0.08394951801100478,-0.871280005229784,7.981658120086028,0.0,0.0,0.0,-10.866581636438527,14.381364800971326,-17.5
1769643887.8287892,nan,nan,nan,0.08394951801100478,-0.871280005229784,7.981658120086028,0.0,0.0,0.0,-10.866581636438527,14.381364800971326,-17.5
1769643887.8575282,nan,nan,nan,0.08394951801100478,-0.871280005229784,7.981658120086028,0.0,0.0,0.0,-10.866581636438527,14.381364800971326,-17.5
1769643887.8986332,nan,nan,nan,0.08394951801100478,-0.871280005229784,7.981658120086028,0.0,0.0,0.0,-10.866581636438527,14.381364800971326,-17.5
1769643887.9511929,nan,nan,nan,0.08394951801100478,-0.871280005229784,7.981658120086028,0.0,0.0,0.0,-10.866581636438527,14.381364800971326,-17.5
1769643887.9959548,nan,nan,nan,0.08394951801100478,-0.871280005229784,7.981658120086028,0.0,0.0,0.0,-10.866581636438527,14.381364800971326,-17.5
1769643888.049973,nan,nan,nan,0.08394951801100478,-0.871280005229784,7.981658120086028,0.0,0.0,0.0,-10.866581636438527,14.381364800971326,-17.5
1769643888.1015284,nan,nan,nan,0.08394951801100478,-0.871280005229784,7.981658120086028,0.0,0.0,0.0,-10.866581636438527,14.381364800971326,-17.5
1769643888.1493797,nan,nan,nan,0.08394951801100478,-0.871280005229784,7.981658120086028,0.0,0.0,0.0,-10.866581636438527,14.381364800971326,-17.5
1769643888.1880295,nan,nan,nan,0.08394951801100478,-0.871280005229784,7.981658120086028,0.0,0.0,0.0,-10.866581636438527,14.381364800971326,-17.5
1769643888.2041285,nan,nan,nan,0.08394951801100478,-0.871280005229784,7.981658120086028,0.0,0.0,0.0,-10.866581636438527,14.381364800971326,-17.5
1769643888.2456007,nan,nan,nan,0.08394951801100478,-0.871280005229784,7.981658120086028,0.0,0.0,0.0,-10.866581636438527,14.381364800971326,-17.5
1769643888.264641,nan,nan,nan,0.08394951801100478,-0.871280005229784,7.981658120086028,0.0,0.0,0.0,-10.866581636438527,14.381364800971326,-17.5
1769643888.3072336,nan,nan,nan,0.08394951801100478,-0.871280005229784,7.981658120086028,0.0,0.0,0.0,-10.866581636438527,14.381364800971326,-17.5
1769643888.378248,nan,nan,nan,0.08394951801100478,-0.871280005229784,7.981658120086028,0.0,0.0,0.0,-10.866581636438527,14.381364800971326,-17.5
1769643888.4324558,nan,nan,nan,0.08394951801100478,-0.871280005229784,7.981658120086028,0.0,0.0,0.0,-10.866581636438527,14.381364800971326,-17.5
1769643888.465407,nan,nan,nan,0.08394951801100478,-0.871280005229784,7.981658120086028,0.0,0.0,0.0,-10.866581636438527,14.381364800971326,-17.5
1769643888.48622,nan,nan,nan,0.08394951801100478,-0.871280005229784,7.981658120086028,0.0,0.0,0.0,-10.866581636438527,14.381364800971326,-17.5
1769643888.524311,nan,nan,nan,0.08394951801100478,-0.871280005229784,7.981658120086028,0.0,0.0,0.0,-10.866581636438527,14.381364800971326,-17.5
1769643888.5418022,nan,nan,nan,0.08394951801100478,-0.871280005229784,7.981658120086028,0.0,0.0,0.0,-10.866581636438527,14.381364800971326,-17.5
1769643888.5659492,nan,nan,nan,0.08394951801100478,-0.871280005229784,7.981658120086028,0.0,0.0,0.0,-10.866581636438527,14.381364800971326,-17.5
1769643888.5985937,nan,nan,nan,0.08394951801100478,-0.871280005229784,7.981658120086028,0.0,0.0,0.0,-10.866581636438527,14.381364800971326,-17.5
1769643888.631749,nan,nan,nan,0.08394951801100478,-0.871280005229784,7.981658120086028,0.0,0.0,0.0,-10.866581636438527,14.381364800971326,-17.5
1769643888.6597326,nan,nan,nan,0.08394951801100478,-0.871280005229784,7.981658120086028,0.0,0.0,0.0,-10.866581636438527,14.381364800971326,-17.5
1769643888.6932962,nan,nan,nan,0.08394951801100478,-0.871280005229784,7.981658120086028,0.0,0.0,0.0,-10.866581636438527,14.381364800971326,-17.5
1769643888.7107875,nan,nan,nan,0.08394951801100478,-0.871280005229784,7.981658120086028,0.0,0.0,0.0,-10.866581636438527,14.381364800971326,-17.5
1769643888.7368076,nan,nan,nan,0.08394951801100478,-0.871280005229784,7.981658120086028,0.0,0.0,0.0,-10.866581636438527,14.381364800971326,-17.5
1769643888.7706206,nan,nan,nan,0.08394951801100478,-0.871280005229784,7.981658120086028,0.0,0.0,0.0,-10.866581636438527,14.381364800971326,-17.5
1769643888.8059921,nan,nan,nan,0.08394951801100478,-0.871280005229784,7.981658120086028,0.0,0.0,0.0,-10.866581636438527,14.381364800971326,-17.5
1769643888.833078,nan,nan,nan,0.08394951801100478,-0.871280005229784,7.981658120086028,0.0,0.0,0.0,-10.866581636438527,14.381364800971326,-17.5
1769643888.8942919,nan,nan,nan,0.08394951801100478,-0.871280005229784,7.981658120086028,0.0,0.0,0.0,-10.866581636438527,14.381364800971326,-17.5
1769643888.9437306,nan,nan,nan,0.08394951801100478,-0.871280005229784,7.981658120086028,0.0,0.0,0.0,-10.866581636438527,14.381364800971326,-17.5
1769643888.9699347,nan,nan,nan,0.08394951801100478,-0.871280005229784,7.981658120086028,0.0,0.0,0.0,-10.866581636438527,14.381364800971326,-17.5
1769643889.0246024,nan,nan,nan,0.08394951801100478,-0.871280005229784,7.981658120086028,0.0,0.0,0.0,-10.866581636438527,14.381364800971326,-17.5
1769643889.0925322,nan,nan,nan,0.08394951801100478,-0.871280005229784,7.981658120086028,0.0,0.0,0.0,-10.866581636438527,14.381364800971326,-17.5
1769643889.1790938,nan,nan,nan,0.08394951801100478,-0.871280005229784,7.981658120086028,0.0,0.0,0.0,-10.866581636438527,14.381364800971326,-17.5
1769643889.2012877,nan,nan,nan,0.08394951801100478,-0.871280005229784,7.981658120086028,0.0,0.0,0.0,-10.866581636438527,14.381364800971326,-17.5
1769643889.2372892,nan,nan,nan,0.08394951801100478,-0.871280005229784,7.981658120086028,0.0,0.0,0.0,-10.866581636438527,14.381364800971326,-17.5
1769643889.2723415,nan,nan,nan,0.08394951801100478,-0.871280005229784,7.981658120086028,0.0,0.0,0.0,-10.866581636438527,14.381364800971326,-17.5
1769643889.3093174,nan,nan,nan,0.08394951801100478,-0.871280005229784,7.981658120086028,0.0,0.0,0.0,-10.866581636438527,14.381364800971326,-17.5
1769643889.342631,nan,nan,nan,0.08394951801100478,-0.871280005229784,7.981658120086028,0.0,0.0,0.0,-10.866581636438527,14.381364800971326,-17.5
1769643889.3724272,nan,nan,nan,0.08394951801100478,-0.871280005229784,7.981658120086028,0.0,0.0,0.0,-10.866581636438527,14.381364800971326,-17.5
1769643889.396522,nan,nan,nan,0.08394951801100478,-0.871280005229784,7.981658120086028,0.0,0.0,0.0,-10.866581636438527,14.381364800971326,-17.5
1769643889.477372,nan,nan,nan,0.08394951801100478,-0.871280005229784,7.981658120086028,0.0,0.0,0.0,-10.866581636438527,14.381364800971326,-17.5
1769643889.5180295,nan,nan,nan,0.08394951801100478,-0.871280005229784,7.981658120086028,0.0,0.0,0.0,-10.866581636438527,14.381364800971326,-17.5
1769643889.5821054,nan,nan,nan,0.08394951801100478,-0.871280005229784,7.981658120086028,0.0,0.0,0.0,-10.866581636438527,14.381364800971326,-17.5
1769643889.671825,nan,nan,nan,0.08394951801100478,-0.871280005229784,7.981658120086028,0.0,0.0,0.0,-10.866581636438527,14.381364800971326,-17.5
1769643889.690249,nan,nan,nan,0.08394951801100478,-0.871280005229784,7.981658120086028,0.0,0.0,0.0,-10.866581636438527,14.381364800971326,-17.5
1769643889.7662833,nan,nan,nan,0.08394951801100478,-0.871280005229784,7.981658120086028,0.0,0.0,0.0,-10.866581636438527,14.381364800971326,-17.5
1769643889.830904,nan,nan,nan,0.08394951801100478,-0.871280005229784,7.981658120086028,0.0,0.0,0.0,-10.866581636438527,14.381364800971326,-17.5
1769643889.893784,nan,nan,nan,0.08394951801100478,-0.871280005229784,7.981658120086028,0.0,0.0,0.0,-10.866581636438527,14.381364800971326,-17.5
1769643889.9072926,nan,nan,nan,0.08394951801100478,-0.871280005229784,7.981658120086028,0.0,0.0,0.0,-10.866581636438527,14.381364800971326,-17.5
1769643889.9271655,nan,nan,nan,0.08394951801100478,-0.871280005229784,7.981658120086028,0.0,0.0,0.0,-10.866581636438527,14.381364800971326,-17.5
1769643890.021176,nan,nan,nan,0.08394951801100478,-0.871280005229784,7.981658120086028,0.0,0.0,0.0,-10.866581636438527,14.381364800971326,-17.5
1769643890.0690665,nan,nan,nan,0.08394951801100478,-0.871280005229784,7.981658120086028,0.0,0.0,0.0,-10.866581636438527,14.381364800971326,-17.5
1769643890.1629176,nan,nan,nan,0.08394951801100478,-0.871280005229784,7.981658120086028,0.0,0.0,0.0,-10.866581636438527,14.381364800971326,-17.5
1769643890.2085156,nan,nan,nan,0.08394951801100478,-0.871280005229784,7.981658120086028,0.0,0.0,0.0,-10.866581636438527,14.381364800971326,-17.5
1769643890.2315516,nan,nan,nan,0.08394951801100478,-0.871280005229784,7.981658120086028,0.0,0.0,0.0,-10.866581636438527,14.381364800971326,-17.5
1769643890.3183525,nan,nan,nan,0.08394951801100478,-0.871280005229784,7.981658120086028,0.0,0.0,0.0,-10.866581636438527,14.381364800971326,-17.5
1769643890.381334,nan,nan,nan,0.08394951801100478,-0.871280005229784,7.981658120086028,0.0,0.0,0.0,-10.866581636438527,14.381364800971326,-17.5
1769643890.4389405,nan,nan,nan,0.08394951801100478,-0.871280005229784,7.981658120086028,0.0,0.0,0.0,-10.866581636438527,14.381364800971326,-17.5
1769643890.5248158,nan,nan,nan,0.08394951801100478,-0.871280005229784,7.981658120086028,0.0,0.0,0.0,-10.866581636438527,14.381364800971326,-17.5
1769643890.5768561,nan,nan,nan,0.08394951801100478,-0.871280005229784,7.981658120086028,0.0,0.0,0.0,-10.866581636438527,14.381364800971326,-17.5
1769643890.6493385,nan,nan,nan,0.08394951801100478,-0.871280005229784,7.981658120086028,0.0,0.0,0.0,-10.866581636438527,14.381364800971326,-17.5
1769643890.7574666,nan,nan,nan,0.08394951801100478,-0.871280005229784,7.981658120086028,0.0,0.0,0.0,-10.866581636438527,14.381364800971326,-17.5
1769643890.8431234,nan,nan,nan,0.08394951801100478,-0.871280005229784,7.981658120086028,0.0,0.0,0.0,-10.866581636438527,14.381364800971326,-17.5
1769643890.870815,nan,nan,nan,0.08394951801100478,-0.871280005229784,7.981658120086028,0.0,0.0,0.0,-10.866581636438527,14.381364800971326,-17.5
1769643890.903449,nan,nan,nan,0.08394951801100478,-0.871280005229784,7.981658120086028,0.0,0.0,0.0,-10.866581636438527,14.381364800971326,-17.5
1769643890.9367504,nan,nan,nan,0.08394951801100478,-0.871280005229784,7.981658120086028,0.0,0.0,0.0,-10.866581636438527,14.381364800971326,-17.5
1769643891.003076,nan,nan,nan,0.08394951801100478,-0.871280005229784,7.981658120086028,0.0,0.0,0.0,-10.866581636438527,14.381364800971326,-17.5
1769643891.0389645,nan,nan,nan,0.08394951801100478,-0.871280005229784,7.981658120086028,0.0,0.0,0.0,-10.866581636438527,14.381364800971326,-17.5
1769643891.0835724,nan,nan,nan,0.08394951801100478,-0.871280005229784,7.981658120086028,0.0,0.0,0.0,-10.866581636438527,14.381364800971326,-17.5
