timestamp,yaw,pitch,roll,ax,ay,az,gx,gy,gz,mx,my,mz
1771539409.744063,-0.08673342552478787,1.199844572467967,-8.268345872507862,-0.19988343752669216,-1.3566474890387654,9.133183394262554,-0.001090830782496456,0.0,0.001090830782496456,48.75,26.0625,-70.1875
1771539410.064696,-0.08673342552478787,1.199844572467967,-8.268345872507862,-0.21037496311254697,-1.396323478357682,9.645458170417056,0.0,0.003272492347489368,-0.001090830782496456,48.375,27.5625,-70.5625
1771539410.258185,-0.08673342552478787,1.199844572467967,-8.268345872507862,-0.20672843303408053,-1.4073175061391976,9.743105171641409,0.0,-0.001090830782496456,0.001090830782496456,47.5625,26.5,-70.5625
1771539410.2963488,-0.08673342552478787,1.199844572467967,-8.268345872507862,-0.20672843303408053,-1.4073175061391976,9.743105171641409,0.0,-0.001090830782496456,0.001090830782496456,47.5625,26.5,-70.5625
1771539410.3195918,-0.08673342552478787,1.199844572467967,-8.268345872507862,-0.2044776970226588,-1.4082148303010558,9.758792015576915,-0.001090830782496456,0.0,0.0,48.0,25.75,-70.0625
1771539410.357138,-0.08673342552478787,1.199844572467967,-8.268345872507862,-0.2063249690567457,-1.4088119895070048,9.762541211567827,0.0,-0.001090830782496456,0.0,48.0,25.75,-70.0625
1771539410.371579,-0.08673342552478787,1.199844572467967,-8.268345872507862,-0.20755430796004978,-1.4092093922878584,9.765036259618515,0.0,-0.001090830782496456,-0.002181661564992912,48.375,26.75,-70.5625
1771539410.3987732,-0.08673342552478787,1.199844572467967,-8.268345872507862,-0.20755430796004978,-1.4092093922878584,9.765036259618515,0.0,-0.001090830782496456,-0.002181661564992912,48.375,26.75,-70.5625
1771539410.4196167,-0.08673342552478787,1.199844572467967,-8.268345872507862,-0.20837241926758332,-1.4094738593992364,9.766696686224735,-0.001090830782496456,-0.002181661564992912,0.0,48.375,26.75,-70.5625
1771539410.4508996,-0.08673342552478787,1.199844572467967,-8.268345872507862,-0.20837241926758332,-1.4094738593992364,9.766696686224735,-0.001090830782496456,-0.002181661564992912,0.0,48.375,26.75,-70.5625
1771539410.5667956,-5.013102600031029e-06,1.199913917204528,-8.2688221175406,-0.20157868707676202,-1.4067286318052727,9.768537043650307,0.0,0.0,0.001090830782496456,47.95878902039339,27.260130446265173,-71.0
1771539410.601247,-5.013102600031029e-06,1.199913917204528,-8.2688221175406,-0.20033652980688182,-1.4079236760776843,9.769026418891572,-0.0010908295326546716,-1.6512813876254145e-06,0.001090830782496456,48.33378859072944,27.26069811499097,-69.375
1771539410.6363842,-5.013102600031029e-06,1.199913917204528,-8.2688221175406,-0.20033652980688182,-1.4079236760776843,9.769026418891572,-0.0010908295326546716,-1.6512813876254145e-06,0.001090830782496456,48.33378859072944,27.26069811499097,-69.375
1771539410.66012,-5.013102600031029e-06,1.199913917204528,-8.2688221175406,-0.20033652980688182,-1.4079236760776843,9.769026418891572,-0.0010908295326546716,-1.6512813876254145e-06,0.001090830782496456,48.33378859072944,27.26069811499097,-69.375
1771539410.701048,0.06882103213571364,1.2118935915162243,-8.309961180011467,-0.20286005966830614,-1.405378920591001,9.769352092647955,0.0021849616280845943,-0.0021783565025340922,0.001090830782496456,48.33378859072944,27.26069811499097,-69.375
1771539410.7248142,0.3219414658834314,1.195399627814845,-8.363635264520623,-0.20453437682727366,-1.4070305221159836,9.769568824894813,0.021857872687784066,-0.02723771268861428,0.06872233929727672,47.95982974639069,26.572631233982428,-70.1875
1771539410.744347,0.3219414658834314,1.195399627814845,-8.363635264520623,-0.20453437682727366,-1.4070305221159836,9.769568824894813,0.021857872687784066,-0.02723771268861428,0.06872233929727672,47.95982974639069,26.572631233982428,-70.1875
1771539410.7688487,0.25734876321507005,1.2255622976319074,-8.293994535285222,-0.2519433663791767,-1.7627819720255726,9.76971305778404,0.029409464065597874,0.028406152446487348,-0.08944812416470939,47.95982974639069,26.572631233982428,-70.1875
1771539410.8104737,0.27549306544405483,1.1707569910364626,-8.279938124071752,-0.2834935193328544,-1.9995305879363205,9.836711277307021,-0.006493787472911641,-0.03382562320062057,0.026179938779914945,48.71153189324017,25.44876786042589,-69.0
1771539410.8264778,0.27549306544405483,1.1707569910364626,-8.279938124071752,-0.311666131751342,-1.8359639187573324,9.881297843980414,-0.03709976307997222,0.007579663161403437,0.07853981633974483,48.71153189324017,25.44876786042589,-69.0
1771539410.8586202,0.35834712350916526,1.1838460916948472,-8.313941690328502,-0.311666131751342,-1.8359639187573324,9.881297843980414,-0.03709976307997222,0.007579663161403437,0.07853981633974483,48.71153189324017,25.44876786042589,-69.0
1771539410.9295464,0.4779661136240934,1.178509751820302,-8.312724072467724,-0.30699893548502183,-1.7270766811591882,9.777165237744198,0.0043567130050681845,0.004369923256169188,-0.032724923474893676,47.96030280366218,26.260131592035723,-69.0
1771539410.9464376,0.4779661136240934,1.178509751820302,-8.312724072467724,-0.30699893548502183,-1.7270766811591882,9.777165237744198,0.0043567130050681845,0.004369923256169188,-0.032724923474893676,47.96030280366218,26.260131592035723,-69.0
1771539410.9836807,0.6376986231112964,1.1972200846633445,-8.331919193214153,-0.3038929685057842,-1.6546134408877657,9.707866151531427,-0.012002427421976637,0.0021634949700454634,0.0545415391248228,47.96030280366218,26.260131592035723,-69.0
1771539411.0056944,0.6376986231112964,1.1972200846633445,-8.331919193214153,-0.3038929685057842,-1.6546134408877657,9.707866151531427,-0.012002427421976637,0.0021634949700454634,0.0545415391248228,47.96030280366218,26.260131592035723,-69.0
1771539411.0329757,0.6518026031072818,1.1981772893940543,-8.317815213218172,-0.3016082398892307,-1.7502296025618895,9.721960394510091,-0.008715077291523996,-0.007649016979683705,0.008726646259971648,46.459453019229315,26.820360272636602,-68.5625
1771539411.0807307,0.7282684366450954,1.2106258487830646,-8.296017621252275,-0.2836204916249343,-1.6432352695788,9.814967748452368,0.00763250416580745,0.002193218035022721,0.011999138607461015,46.459453019229315,26.820360272636602,-68.5625
1771539411.108742,0.7775350021334868,1.2072252741258553,-8.302493764348792,-0.2582694145930035,-1.5720114810870272,9.876863103540733,-0.005437634849397103,-0.010916551733484842,-0.004363323129985824,46.45879073904921,27.257859771361986,-70.5625
1771539411.1606524,0.8685839310945364,1.2069094227728439,-8.315488784800163,-0.23805344814375054,-1.5246077816934664,9.804319972886761,0.013101513361569436,-0.007615991351931196,0.028361600344907856,46.45879073904921,27.257859771361986,-70.5625
1771539411.2075853,0.9389327043329189,1.2049528143722887,-8.307786299423668,-0.21465577260957402,-1.432834016216066,9.756043329796409,0.007642411854133203,-0.004351759160905308,0.032724923474893676,44.95945473788514,26.818089597733415,-70.5625
1771539411.2677672,1.0511159742622707,1.2061506552273713,-8.307103696683916,-0.14890826279190736,-1.3716836438589675,9.723915763105218,-0.0010693628746155411,-0.014182435205898356,0.06435901616729091,44.95945473788514,26.818089597733415,-70.5625
1771539411.3119013,1.0511159742622707,1.2061506552273713,-8.307103696683916,-0.14890826279190736,-1.3716836438589675,9.723915763105218,-0.0010693628746155411,-0.014182435205898356,0.06435901616729091,44.95945473788514,26.818089597733415,-70.5625
1771539411.349439,1.0511159742622707,1.2061506552273713,-8.307103696683916,-0.14890826279190736,-1.3716836438589675,9.723915763105218,-0.0010693628746155411,-0.014182435205898356,0.06435901616729091,44.95945473788514,26.818089597733415,-70.5625
1771539411.3881705,1.360771004522977,1.2914658009622613,-8.281965490831823,-0.05937628053756876,-1.2370265095166564,9.681616494578773,0.017454923803862373,-0.001064409030452665,0.04254240051736178,44.64780659902713,26.255117184957854,-69.375
1771539411.4062197,1.360771004522977,1.2914658009622613,-8.281965490831823,-0.05937628053756876,-1.2370265095166564,9.681616494578773,0.017454923803862373,-0.001064409030452665,0.04254240051736178,44.64780659902713,26.255117184957854,-69.375
1771539411.4672775,1.4299494755670186,1.3035573715681288,-8.288020592408333,-0.07569265759727378,-1.2313861858071256,9.674385535670107,-0.013076744140755055,-0.008746451637888878,0.019634954084936207,43.95983432947289,26.566576100907263,-68.1875
1771539411.5135262,1.506188194232086,1.31608005445397,-8.286998013693223,-0.016298695124131304,-1.2308713820027355,9.662883189876855,-0.009820768356667293,0.0021667975328207145,0.04690572364734761,43.95983432947289,26.566576100907263,-68.1875
1771539411.545553,1.5832599882160823,1.314994340390688,-8.30756413182688,-0.14402807030173387,-1.2307819745283881,9.665263842363025,-0.01418078392451073,-2.1466658039130392e-05,0.014180800172453928,43.14733526041146,26.565346152001368,-69.375
1771539411.5791233,1.7216931692604345,1.3391449077085131,-8.312607357561586,-0.18195090747496886,-1.3945618678699265,9.66684813999894,-0.003257627065475386,-0.00982241963805492,0.05890486225480862,43.14733526041146,26.565346152001368,-69.375
1771539411.6159272,1.7216931692604345,1.3391449077085131,-8.312607357561586,-0.18195090747496886,-1.3945618678699265,9.66684813999894,-0.003257627065475386,-0.00982241963805492,0.05890486225480862,43.14733526041146,26.565346152001368,-69.375
1771539411.6340554,1.719579580124132,1.3671365405177125,-8.319209882698377,-0.23394899498461957,-1.503596067540513,9.724769371402308,-0.010938018391523972,0.019618418773907832,-0.007635815477475192,42.51603525198258,-10.560652037264298,-0.0625
1771539411.6636233,1.719579580124132,1.3671365405177125,-8.319209882698377,-0.23394899498461957,-1.503596067540513,9.724769371402308,-0.010938018391523972,0.019618418773907832,-0.007635815477475192,42.51603525198258,-10.560652037264298,-0.0625
1771539411.6984997,1.8643884093675311,1.3990824085688962,-8.338425885969071,-0.24197963801187072,-1.4523476078766038,9.793421309244573,-0.0010875269698794208,-0.0021833103466969684,0.05126904677733343,42.51603525198258,-10.560652037264298,-0.0625
1771539411.7379587,1.927590541006007,1.3967771084527758,-8.344667980344559,-0.22394869630930175,-1.3914460210374229,9.839108406986206,0.002211382130286601,-0.019631629025008836,0.03599741582238305,40.95983776678453,26.56203475110089,-69.75
1771539411.7629936,2.0462808134925945,1.405288070472992,-8.336098261381448,-0.2119493060250584,-1.350916695311249,9.892928442126177,-0.004346805316742432,-0.010914900452097217,0.031634092692397225,40.95983776678453,26.56203475110089,-69.75
1771539411.7864175,2.0462808134925945,1.405288070472992,-8.336098261381448,-0.2119493060250584,-1.350916695311249,9.892928442126177,-0.004346805316742432,-0.010914900452097217,0.031634092692397225,40.95983776678453,26.56203475110089,-69.75
1771539411.801957,2.0954321206748463,1.4020932040378242,-8.34950511422506,-0.17059885124726892,-1.2670274101733547,9.841772169912337,0.006559838728416658,-0.009807558105566291,0.031634092692397225,40.209460180295245,26.810899127206657,-66.5625
1771539411.8326259,2.137406261310748,1.4052328236180103,-8.349445942602015,-0.15961370146331885,-1.3383394461238551,9.831144024158267,0.003270837316576389,0.0010957833768175478,0.04254240051736178,40.209460180295245,26.810899127206657,-66.5625
1771539411.8541384,2.137406261310748,1.4052328236180103,-8.349445942602015,-0.15961370146331885,-1.3383394461238551,9.831144024158267,0.003270837316576389,0.0010957833768175478,0.04254240051736178,40.209460180295245,26.810899127206657,-66.5625
1771539411.8825748,2.221216321447903,1.4111985169778434,-8.341329339253088,-0.1523943549286896,-1.3255848676986752,9.8240711118831,0.010914900452097217,-0.004346805316742432,0.019634954084936207,40.209460180295245,26.810899127206657,-66.5625
1771539411.898074,2.221216321447903,1.4111985169778434,-8.341329339253088,-0.1523943549286896,-1.3255848676986752,9.8240711118831,0.010914900452097217,-0.004346805316742432,0.019634954084936207,40.209460180295245,26.810899127206657,-66.5625
1771539411.9223442,2.2761082108770805,1.4290746558112324,-8.333334076353344,-0.16658487854131496,-1.3727655218570078,9.8552541123031,-0.0022014744419608483,0.013086651829080809,0.03599741582238305,39.45946103962316,26.809763789755063,-68.5625
1771539411.9453619,2.2761082108770805,1.4290746558112324,-8.333334076353344,-0.16658487854131496,-1.3727655218570078,9.8552541123031,-0.0022014744419608483,0.013086651829080809,0.03599741582238305,39.45946103962316,26.809763789755063,-68.5625
1771539411.9970808,2.372858864426361,1.4499776284431607,-8.324732412372853,-0.1701962846115058,-1.4923549302384864,9.843461217923474,0.008736543949563125,-0.006531766944827026,0.028361600344907856,39.45756881053717,28.059762357541878,-68.5625
1771539412.0322235,2.4640519418389477,1.4495776548146926,-8.323586266949908,-0.2461920082501246,-1.572051748646102,9.86906429552229,0.006553233602866157,-0.005444239974947605,0.02181661564992912,39.45756881053717,28.059762357541878,-68.5625
1771539412.063346,2.4640519418389477,1.4495776548146926,-8.323586266949908,-0.2461920082501246,-1.572051748646102,9.86906429552229,0.006553233602866157,-0.005444239974947605,0.02181661564992912,39.45756881053717,28.059762357541878,-68.5625
1771539412.1424916,2.5967361758289282,1.459281434808526,-8.322203932403596,-0.2969384817243506,-1.5113554232885529,9.832581070342075,-0.0043600155678434355,-0.002188264190859845,0.039269908169872414,37.5213009793735,27.244330333397166,-69.0
1771539412.171854,2.667306151894911,1.4506890324310169,-8.335453945634189,-0.2972586142003069,-1.470912059044136,9.8651687905534,-0.016345930175943817,-0.010933064547361097,0.03599741582238305,37.5213009793735,27.244330333397166,-69.0
1771539412.2336614,2.758393726104874,1.4504508049367701,-8.341283416961362,-0.27074624220917404,-1.4205411866062567,9.876820219203392,0.0010776192815536683,0.008728287542624998,0.01090830782496456,35.02073617507408,27.615545445561235,-69.0
1771539412.2678497,2.758393726104874,1.4504508049367701,-8.341283416961362,-0.27074624220917404,-1.4205411866062567,9.876820219203392,0.0010776192815536683,0.008728287542624998,0.01090830782496456,35.02073617507408,27.615545445561235,-69.0
1771539412.2921505,2.777497627568744,1.479547596148082,-8.326402492377259,-0.2130118980579565,-1.3535080896428553,9.884574114814974,0.011962796668673628,0.024016413813666652,0.04581489286485115,35.02073617507408,27.615545445561235,-69.0
1771539412.317538,2.88795847964411,1.5083278417456991,-8.310825054728662,-0.2147316314552703,-1.308959077712086,9.8562831286546,0.011982612045325133,0.010926459421810595,0.02945243112740431,34.64696655364393,26.802478707774007,-71.0
1771539412.367696,2.943574531949174,1.518834044995897,-8.288895128011728,-0.13558337828209854,-1.2858808930871728,9.807349788030018,0.0054524963818857325,0.0010990859395927986,-0.001090830782496456,34.64696655364393,26.802478707774007,-71.0
1771539412.3990817,3.0482088562419376,1.5263770388345432,-8.28731227792578,-0.17656399287949212,-1.2773546204444586,9.774785196465592,0.003270837316576389,0.0010957833768175478,0.03381575425739013,33.521305562455694,27.238275200322004,-69.0
1771539412.4789448,3.0482088562419376,1.5263770388345432,-8.28731227792578,-0.17656399287949212,-1.2773546204444586,9.774785196465592,0.003270837316576389,0.0010957833768175478,0.03381575425739013,33.521305562455694,27.238275200322004,-69.0
1771539412.5139275,3.220115310602209,1.476158583491244,-8.300860281289106,-0.140279084493408,-1.2715842695368778,9.843431840647412,-0.008701867040422992,-0.016375653240921075,0.04799655442984406,31.70823997043902,27.610531038483362,-71.5
1771539412.530755,3.220115310602209,1.476158583491244,-8.300860281289106,-0.140279084493408,-1.2715842695368778,9.843431840647412,-0.008701867040422992,-0.016375653240921075,0.04799655442984406,31.70823997043902,27.610531038483362,-71.5
1771539412.5475945,3.3038154584999755,1.4821997626386887,-8.299611500404803,-0.17967880536037367,-1.2745305929246644,9.889115415517152,0.004364969412006312,-0.00108422440710417,0.05235987755982989,31.70823997043902,27.610531038483362,-71.5
1771539412.5681856,3.3038154584999755,1.4821997626386887,-8.299611500404803,-0.17967880536037367,-1.2745305929246644,9.889115415517152,0.004364969412006312,-0.00108422440710417,0.05235987755982989,31.70823997043902,27.610531038483362,-71.5
1771539412.6442375,3.4988012492010734,1.5033660904499637,-8.296965565855023,-0.24977660986409916,-1.489543796939657,9.906321977852937,-0.0010875269698794208,-0.0021833103466969684,0.02945243112740431,32.020739612385725,27.61100409575486,-69.375
1771539412.6944368,3.4988012492010734,1.5033660904499637,-8.296965565855023,-0.24977660986409916,-1.489543796939657,9.906321977852937,-0.0010875269698794208,-0.0021833103466969684,0.02945243112740431,32.020739612385725,27.61100409575486,-69.375
1771539412.7172549,3.534680531543152,1.4919364413067109,-8.296838473672437,-0.2725378121884418,-1.4731323322819911,9.951038769542482,-0.008715077291523996,-0.007649016979683705,0.007635815477475192,30.205971014191654,29.10825864492435,-68.5625
1771539412.7444324,-3.6282137670782584,-0.9639013508585254,8.312969680307168,-0.281045560068172,-1.428749479586228,9.98079729489258,0.001095783376817548,-0.0032708373165763896,0.07417649320975901,30.205971014191654,29.10825864492435,-68.5625
1771539412.7701974,3.7097529196591146,1.4976410488247487,-8.294885337839517,-0.28673269011503544,-1.3824876475332037,9.903593021576299,-0.0010792705629412936,-0.007637458009970326,0.025089107997418487,29.143472231572865,29.106650250201263,-69.75
1771539412.8177924,3.788083630116667,1.482035715068275,-8.28738509695426,-0.19016417539415056,-1.3515490018563974,9.842179104990597,-0.0021701000955959655,-0.007639109291357952,0.050178215994836975,29.143472231572865,29.106650250201263,-69.75
1771539412.8433597,3.788083630116667,1.482035715068275,-8.28738509695426,-0.19016417539415056,-1.3515490018563974,9.842179104990597,-0.0021701000955959655,-0.007639109291357952,0.050178215994836975,29.143472231572865,29.106650250201263,-69.75
1771539412.9523673,3.9562921485232323,1.486990616100923,-8.278568137647342,-0.19884271040251544,-1.3876803031039948,9.774098297787523,0.0010825731257165445,0.005455798944660983,0.04254240051736178,28.454270013112726,30.230608235212102,-71.5
1771539412.99523,3.9562921485232323,1.486990616100923,-8.278568137647342,-0.19884271040251544,-1.3876803031039948,9.774098297787523,0.0010825731257165445,0.005455798944660983,0.04254240051736178,28.454270013112726,30.230608235212102,-71.5
1771539413.130533,4.144535774853248,1.5071241425483424,-8.261955799126296,-0.20181530180040866,-1.4253582607561928,9.749311589445375,0.012002427421976637,-0.0021634949700454634,0.028361600344907856,27.20493372550601,29.791216507400726,-70.1875
1771539413.1777875,4.298200184069308,1.5182363362384874,-8.260030866571725,-0.2037631455248763,-1.4705031679308989,9.73281631192935,-0.009812511949729166,-0.0032873501304526436,0.01090830782496456,27.20493372550601,29.791216507400726,-70.1875
1771539413.2257404,4.466778050955432,1.5157701437323774,-8.243925878530954,-0.20505941376466938,-1.5005465993540095,9.71849377729944,0.004366620693393938,-0.0021750539397588416,0.02945243112740431,24.32653100724156,32.03686180251922,-71.0
1771539413.2681625,4.466778050955432,1.5157701437323774,-8.243925878530954,-0.20505941376466938,-1.5005465993540095,9.71849377729944,0.004366620693393938,-0.0021750539397588416,0.02945243112740431,24.32653100724156,32.03686180251922,-71.0
1771539413.3109424,4.466778050955432,1.5157701437323774,-8.243925878530954,-0.20505941376466938,-1.5005465993540095,9.71849377729944,0.004366620693393938,-0.0021750539397588416,0.02945243112740431,24.32653100724156,32.03686180251922,-71.0
1771539413.3442092,4.675567831566318,1.543962032461628,-8.219591106532278,-0.2126122815471645,-1.5205502949072405,9.732378072447665,-0.0021816590653093433,-3.302562775250829e-06,0.04145156973486533,22.823883605176995,33.78458912251757,-71.0
1771539413.472925,4.675567831566318,1.543962032461628,-8.219591106532278,-0.2126122815471645,-1.5205502949072405,9.732378072447665,-0.0021816590653093433,-3.302562775250829e-06,0.04145156973486533,22.823883605176995,33.78458912251757,-71.0
1771539413.499793,5.043589034370201,1.6051854815008306,-8.206506557777338,-0.1975629196636854,-1.5371772560717747,9.721547245527153,-0.008721682417074496,-0.003285698849065018,0.04581489286485115,21.448222900431404,34.22000716924837,-70.5625
1771539413.5497065,5.113309166439035,1.6101418884867014,-8.205310411069759,-0.1875477374426175,-1.5482423129914464,9.764516126809607,-0.0032790937235145164,0.0043583642864558104,0.017453292519943295,21.448222900431404,34.22000716924837,-70.5625
1771539413.6124413,5.113309166439035,1.6101418884867014,-8.205310411069759,-0.1875477374426175,-1.5482423129914464,9.764516126809607,-0.0032790937235145164,0.0043583642864558104,0.017453292519943295,21.448222900431404,34.22000716924837,-70.5625
1771539413.6459503,5.205410268215486,1.60142746504786,-8.1764696903226,-0.18091312819622138,-1.5355353375191698,9.833252777797059,-4.953844162876244e-06,0.0032724885979640147,0.0272707695624114,19.13222492621672,36.529003895844895,-69.0
1771539413.6833775,5.296961665899408,1.6006859065708403,-8.168740902350486,-0.1765333162751296,-1.503663232166464,9.878996251190506,-0.0010710141560031667,-0.013091605673243686,0.025089107997418487,19.13222492621672,36.529003895844895,-69.0
1771539413.75596,5.296961665899408,1.6006859065708403,-8.168740902350486,-0.1765333162751296,-1.503663232166464,9.878996251190506,-0.0010710141560031667,-0.013091605673243686,0.025089107997418487,19.13222492621672,36.529003895844895,-69.0
1771539413.8121676,5.502776470054437,1.5666478993603827,-8.174957441799194,-0.1736743018828305,-1.4456565154685055,9.906092910038446,-0.02398173690452652,-0.010944623517074474,0.018544123302439753,18.81764383227543,37.90352926313889,-66.5625
1771539413.8453717,5.607662184206106,1.5741669748092708,-8.173661198932653,-0.2285827920945677,-1.443935964264266,9.863913423080488,0.0011122961906938021,-0.014179132643123106,0.015271630954950384,18.81764383227543,37.90352926313889,-66.5625
1771539413.873648,5.670395667598538,1.5786052344995698,-8.172580862595243,-0.20162243086074683,-1.4058985583286223,9.875984786173543,-0.0054508451004981065,-0.00218991547224747,0.038179077387375956,17.315374876028063,39.40125686957988,-66.5625
1771539413.9325924,5.775897545018129,1.578813628694361,-8.164632009143983,-0.26049149838878277,-1.4643292532539394,9.830496356148899,0.0021750539397588416,0.004366620693393937,0.018544123302439753,17.315374876028063,39.40125686957988,-66.5625
1771539413.9750888,5.775897545018129,1.578813628694361,-8.164632009143983,-0.26049149838878277,-1.4643292532539394,9.830496356148899,0.0021750539397588416,0.004366620693393937,0.018544123302439753,17.315374876028063,39.40125686957988,-66.5625
1771539414.0069976,5.775897545018129,1.578813628694361,-8.164632009143983,-0.26049149838878277,-1.4643292532539394,9.830496356148899,0.0021750539397588416,0.004366620693393937,0.018544123302439753,17.315374876028063,39.40125686957988,-66.5625
1771539414.029217,5.930805216998745,1.5751344345439113,-8.149211885218126,-0.21287263257352346,-1.3860037942749919,9.783498755569958,0.002160192407270213,0.014184086487285983,0.050178215994836975,16.18914621611404,40.21205293246392,-65.0
1771539414.052063,5.980325623425763,1.5709033530901741,-8.134775450690274,-0.18110178892489723,-1.387400802270631,9.745532153967634,-0.0054508451004981065,-0.00218991547224747,0.022907446432425576,16.18914621611404,40.21205293246392,-65.0
1771539414.08235,5.980325623425763,1.5709033530901741,-8.134775450690274,-0.18110178892489723,-1.387400802270631,9.745532153967634,-0.0054508451004981065,-0.00218991547224747,0.022907446432425576,16.18914621611404,40.21205293246392,-65.0
1771539414.1233761,6.043895661953318,1.568471456090012,-8.134529908455333,-0.1599586473803143,-1.388330495486127,9.726956028130655,-0.0054475425377228555,-0.004371574537556814,0.019634954084936207,15.812538251054905,41.273984046356915,-63.75
1771539414.1713448,6.12301025688495,1.5390326845717175,-8.13499644011689,-0.13585279924299418,-1.3889340046132816,9.707903600480428,0.002191566753635096,-0.006541674633152779,0.04581489286485115,15.812538251054905,41.273984046356915,-63.75
1771539414.2025394,6.24270513558657,1.5339238504692199,-8.141147542778954,-0.19684431941168093,-1.325895050383675,9.715295092952681,0.00982902476360542,-0.007620945196094072,0.038179077387375956,14.689810214949958,39.77228275883535,-64.5625
1771539414.2438805,6.24270513558657,1.5339238504692199,-8.141147542778954,-0.19684431941168093,-1.325895050383675,9.715295092952681,0.00982902476360542,-0.007620945196094072,0.038179077387375956,14.689810214949958,39.77228275883535,-64.5625
1771539414.2920842,6.331826040089426,1.567912344826011,-8.131611608476655,-0.15380579789929702,-1.2838167361817618,9.69345315496603,-0.006554884884253782,0.006535069507602277,0.031634092692397225,14.689810214949958,39.77228275883535,-64.5625
1771539414.33309,6.415333652368959,1.5808788753789083,-8.130250447725425,-0.20854371453671094,-1.4198509683341827,9.665537142397069,0.0054491938191104814,0.003280745004902142,0.006544984694978736,13.62504075742798,41.270672645456436,-61.75
1771539414.3593154,6.415333652368959,1.5808788753789083,-8.130250447725425,-0.20854371453671094,-1.4198509683341827,9.665537142397069,0.0054491938191104814,0.003280745004902142,0.006544984694978736,13.62504075742798,41.270672645456436,-61.75
1771539414.386188,6.511908040723046,1.6016632683259469,-8.127747078369357,-0.25835161809467183,-1.510400485326216,9.646959347874718,-0.0010891782512670461,-0.001092480814042297,0.016362461737446838,13.62504075742798,41.270672645456436,-61.75
1771539414.432768,6.646638110066945,1.5832254466094322,-8.127416597303617,-0.2917514102284947,-1.4034047836505874,9.634596033147657,-0.0032526732213125097,-0.013094908236018936,0.05999569303730508,12.937068487873734,41.582131561405845,-60.1875
1771539414.4881535,6.646638110066945,1.5832254466094322,-8.127416597303617,-0.2917514102284947,-1.4034047836505874,9.634596033147657,-0.0032526732213125097,-0.013094908236018936,0.05999569303730508,12.937068487873734,41.582131561405845,-60.1875
1771539414.5236511,6.646638110066945,1.5832254466094322,-8.127416597303617,-0.2917514102284947,-1.4034047836505874,9.634596033147657,-0.0032526732213125097,-0.013094908236018936,0.05999569303730508,12.937068487873734,41.582131561405845,-60.1875
1771539414.5471187,6.800948801098262,1.5880752098624888,-8.139974618479433,-0.24373133342706205,-1.3320940001489283,9.656474390669947,-0.006561490009804284,0.010898387638220963,0.04908738521234052,12.501177383871442,40.51897049860696,-57.75
1771539414.5874405,6.800948801098262,1.5880752098624888,-8.139974618479433,-0.24373133342706205,-1.3320940001489283,9.656474390669947,-0.006561490009804284,0.010898387638220963,0.04908738521234052,12.501177383871442,40.51897049860696,-57.75
1771539414.62589,6.871231721221571,1.585603066455822,-8.132154899007524,-0.13140077181055446,-1.3447278814855865,9.64092818783789,0.002173402658371216,0.005457450226048609,0.037088246604879506,12.501177383871442,40.51897049860696,-57.75
1771539414.6668873,6.976009877313988,1.5934791383503182,-8.1377174839675,-0.13691849931122516,-1.3599473347138435,9.647307922052217,-1.1558969713377903e-05,0.007635806728582701,0.018544123302439753,11.688678314810012,40.51774054970107,-57.5
1771539414.7414339,7.137659497923458,1.592328253043409,-8.157508190342812,-0.14051959248797982,-1.4169072210690608,9.651553563905551,-0.01635583786426957,-0.004388087351433067,0.028361600344907856,11.688110646084215,40.89274012003711,-57.375
1771539414.7617736,7.137659497923458,1.592328253043409,-8.157508190342812,-0.14051959248797982,-1.4169072210690608,9.651553563905551,-0.01635583786426957,-0.004388087351433067,0.028361600344907856,11.688110646084215,40.89274012003711,-57.375
1771539414.815836,7.186224056500837,1.6032771898671176,-8.16364613720545,-0.1496062955194413,-1.4548235167031058,9.70455566674181,-0.00765066826107133,0.009805906824178666,0.007635815477475192,11.688110646084215,40.89274012003711,-57.375
1771539414.8675094,7.270556285858147,1.6013431141462406,-8.148602393182045,-0.1557090963972377,-1.44326020127431,9.739827974107056,-0.007620945196094073,-0.009829024763605422,0.037088246604879506,11.002314439978857,39.76670068303169,-56.5625
1771539414.9195914,7.270556285858147,1.6013431141462406,-8.148602393182045,-0.1557090963972377,-1.44326020127431,9.739827974107056,-0.007620945196094073,-0.009829024763605422,0.037088246604879506,11.002314439978857,39.76670068303169,-56.5625
1771539414.977665,7.481223215414882,1.602808173289795,-8.15355110858446,-0.16320163424353865,-1.378703173933267,9.780026859177733,-0.007629201603032199,-0.004374877100332064,0.061086523819801536,11.002314439978857,39.76670068303169,-56.5625
1771539415.0087829,7.592344062039052,1.618633983578193,-8.16543957646283,-0.1748780502322979,-1.3357513209353193,9.796743433019342,-0.006561490009804284,0.010898387638220963,0.026179938779914945,9.94095099481166,39.015093147636506,-53.0
1771539415.084864,7.7878755705410265,1.6391209155977533,-8.155304974952303,-0.21938399596956482,-1.347364338579371,9.807868126174567,0.017454923803862373,-0.001064409030452665,0.04799655442984406,12.128921545710082,38.705904906590284,-53.75
1771539415.1244144,7.7878755705410265,1.6391209155977533,-8.155304974952303,-0.21938399596956482,-1.347364338579371,9.807868126174567,0.017454923803862373,-0.001064409030452665,0.04799655442984406,12.128921545710082,38.705904906590284,-53.75
1771539415.1492054,7.886934495581714,1.631717797009071,-8.147898708342183,-0.24885029246968313,-1.4554459083332472,9.795200814954487,-0.003257627065475386,-0.00982241963805492,0.05126904677733343,12.128921545710082,38.705904906590284,-53.75
1771539415.213431,7.992200655341096,1.6326974559855811,-8.153823059041418,-0.27514999937959034,-1.5273831132024782,9.786770860840663,-0.014159317266471601,-0.014202250582549862,0.05890486225480862,9.942086332263253,38.26509400696442,-53.0
1771539415.2455297,8.09702521022405,1.645685681151296,-8.130936844690229,-0.15901495010404892,-1.4646654086248945,9.817957049327184,0.01636904811537057,-0.004338548909804305,0.04908738521234052,9.942086332263253,38.26509400696442,-53.0
1771539415.319318,8.153691872063169,1.6427616404231535,-8.130829377636083,-0.23897376110103277,-1.4064399348425682,9.838711109392412,0.0032691860351887637,0.0021866129094722194,0.019634954084936207,9.192654860316962,37.88895909917678,-52.1875
1771539415.3542628,8.264944604446063,1.6581443293840126,-8.135625280964979,-0.2921601377504079,-1.384417071834534,9.835797145991181,-0.010901690200996213,-0.00437983094449494,0.06217735460229799,9.192654860316962,37.88895909917678,-52.1875
1771539415.3903897,8.34897422138205,1.664131226251752,-8.134475235417087,-0.32763609766596713,-1.3162393765207643,9.830512824191448,0.00656644385396716,-0.014170876236184978,0.039269908169872414,9.506857508441055,36.76443344544014,-50.1875
1771539415.4637783,8.34897422138205,1.664131226251752,-8.134475235417087,-0.32763609766596713,-1.3162393765207643,9.830512824191448,0.00656644385396716,-0.014170876236184978,0.039269908169872414,9.506857508441055,36.76443344544014,-50.1875
1771539415.4916897,8.585807306983078,1.6943741447485154,-8.122783249573585,-0.3911026758408526,-1.458254688150805,9.830341278770787,0.0021866129094722194,-0.003269186035188764,0.022907446432425576,9.197006987214737,35.01396239326711,-47.75
1771539415.5591216,8.606547619249548,1.6963437839633975,-8.12932402328116,-0.4567749848667686,-1.5394193065462074,9.883748904526735,4.953844162876244e-06,-0.0032724885979640147,-0.02399827721492203,9.197006987214737,35.01396239326711,-47.75
1771539415.6038492,8.606547619249548,1.6963437839633975,-8.12932402328116,-0.4567749848667686,-1.5394193065462074,9.883748904526735,4.953844162876244e-06,-0.0032724885979640147,-0.02399827721492203,9.197006987214737,35.01396239326711,-47.75
1771539415.630408,8.760629294255589,1.7127229970746953,-8.105807028149004,-0.5004791729157557,-1.5934334534201529,9.919291082865048,-0.0010990859395927988,0.0054524963818857325,0.0545415391248228,9.947195350795424,34.89009787394002,-47.6875
1771539415.6449196,8.760629294255589,1.7127229970746953,-8.105807028149004,-0.5004791729157557,-1.5934334534201529,9.919291082865048,-0.0010990859395927988,0.0054524963818857325,0.0545415391248228,9.947195350795424,34.89009787394002,-47.6875
1771539415.6660962,8.795770216746542,1.7087137436119053,-8.112580970823629,-0.4226773468659205,-1.5255188799026391,9.909492888443854,0.007653970823846581,-0.011987565889488008,0.02945243112740431,9.947195350795424,34.89009787394002,-47.6875
1771539415.6870394,8.830462445265733,1.718762354717429,-8.118793644061737,-0.3040090707895897,-1.4735309986503558,9.882901629265637,-0.012000776140589012,0.001072665437390792,0.04036073895236887,9.947195350795424,34.89009787394002,-47.6875
1771539415.718478,8.830462445265733,1.718762354717429,-8.118793644061737,-0.3040090707895897,-1.4735309986503558,9.882901629265637,-0.012000776140589012,0.001072665437390792,0.04036073895236887,9.947195350795424,34.89009787394002,-47.6875
1771539415.7556806,8.914498702929743,1.724731358331217,-8.117569480404187,-0.22504678622056273,-1.4322434286704686,9.848479884789764,1.486153248862873e-05,-0.009817465793892043,0.002181661564992912,9.511493469701726,33.70193695436245,-46.5
1771539415.8058975,8.976886698584037,1.7372647577393383,-8.130150977394159,-0.172553969421872,-1.3679708254407525,9.825572598357152,-0.010913249170709592,0.003255975784087761,0.019634954084936207,9.511493469701726,33.70193695436245,-46.5
1771539415.8507955,9.096742456497704,1.7264267528841688,-8.15067722278927,-0.1510010177238841,-1.3252183810599372,9.773531826346892,-0.00761103750776832,-0.01637400195953345,0.02399827721492203,8.824940371961974,33.07589694447175,-47.6875
1771539415.9035459,9.215623775298893,1.7419500023361396,-8.14864924980259,-0.1364906645846714,-1.4071556667620346,9.802456396346646,0.006541674633152778,0.0021915667536350956,0.006544984694978736,8.824940371961974,33.07589694447175,-47.6875
1771539415.9680688,9.376141366834153,1.7585702215384862,-8.124351020086285,-0.2286648556895973,-1.4278884731949524,9.862371585463208,-0.0010594551862897887,-0.020727412401826385,0.015271630954950384,8.826737989593664,31.888398305074276,-46.5
1771539416.0306127,9.425543892111621,1.7615522842379023,-8.116849956713498,-0.19510835809658544,-1.3149264157458118,9.861578263633419,0.009827373482217796,-0.006530115663439401,0.02399827721492203,10.701168172548087,32.2662362190393,-46.0625
1771539416.0895672,9.574082565382767,1.7493067934929751,-8.095070894548893,-0.16274662394944353,-1.2363911291852787,9.770732300720057,-0.0032526732213125097,-0.013094908236018936,0.025089107997418487,10.701168172548087,32.2662362190393,-46.0625
1771539416.1205266,9.617691867916113,1.7320669695353341,-8.103343509400387,-0.12113960413124433,-1.1840963906310689,9.710275327217115,0.0021783565025340922,0.002184961628084594,0.026179938779914945,9.203440566107098,30.76396726279194,-45.75
1771539416.1435533,9.617691867916113,1.7320669695353341,-8.103343509400387,-0.12113960413124433,-1.1840963906310689,9.710275327217115,0.0021783565025340922,0.002184961628084594,0.026179938779914945,9.203440566107098,30.76396726279194,-45.75
1771539416.1600013,17.53630493315046,1.7193828253558585,-8.09389934291387,-0.11336426747245326,-1.2530235530508134,9.67004188669955,0.010919854296260093,-0.007619293914706447,0.030543261909900768,9.203440566107098,30.76396726279194,-45.75
1771539416.2576985,17.712771382115577,1.7414345397129039,-8.061593381301153,-0.08808883788988725,-1.3189340742770232,9.59643541756962,0.0010660603118402905,0.016364094271207698,0.04254240051736178,9.204292069195793,30.201467907287874,-46.1875
1771539416.3254392,17.997765313591824,1.7246677050369128,-8.048760575040575,-0.06460848874336891,-1.3427160150884985,9.68460071460188,0.0033022116629412724,-0.019629977743621213,0.028361600344907856,9.204292069195793,30.201467907287874,-46.1875
1771539416.3674362,18.134137310417522,1.7090863748304763,-8.02241737322722,-0.048937004711834105,-1.3886486019081494,9.632885048564411,0.026198072878976,-0.011959494105898376,-0.015271630954950384,9.205995075373183,29.076469196279742,-44.5625
1771539416.427114,18.134137310417522,1.7090863748304763,-8.02241737322722,-0.048937004711834105,-1.3886486019081494,9.632885048564411,0.026198072878976,-0.011959494105898376,-0.015271630954950384,9.205995075373183,29.076469196279742,-44.5625
1771539416.4548151,18.65181132549437,1.712912359070616,-8.076572480516642,-0.1488052190778028,-1.4795952716250609,9.64195530271347,-0.020684479085748126,-0.02730211266273167,0.014180800172453928,9.205995075373183,29.076469196279742,-44.5625
1771539416.5038593,19.278567550281657,1.701852562960999,-8.07656750832085,-0.21526640013730317,-1.540119264380797,9.604505003333138,0.0010858756884917953,0.0032741398793516402,0.05345070834232634,9.958264890948458,27.577606252387156,-45.75
1771539416.5212212,19.278567550281657,1.701852562960999,-8.07656750832085,-0.21526640013730317,-1.540119264380797,9.604505003333138,0.0010858756884917953,0.0032741398793516402,0.05345070834232634,9.958264890948458,27.577606252387156,-45.75
1771539416.5497272,19.308192028118725,1.6901512511331755,-8.078614109781544,-0.1557972296001066,-1.5802403284642625,9.619723587930615,-0.0010990859395927988,0.0054524963818857325,0.014180800172453928,9.958264890948458,27.577606252387156,-45.75
1771539416.6256323,20.05515463947422,1.6932775638237396,-8.068957502767288,-0.11641864811302126,-1.4764812413211896,9.629851385977508,-0.007624247758869323,-0.007647365698296079,0.037088246604879506,10.334872856007593,26.515675138494164,-45.0
1771539416.692,20.47576638679847,1.6802276122269673,-8.062988952509874,-0.13369904439059965,-1.4074965569561753,9.656661992686715,0.008743149075113628,-0.010895085075445713,0.028361600344907856,10.334872856007593,26.515675138494164,-45.0
1771539416.778428,20.47576638679847,1.6802276122269673,-8.062988952509874,-0.13369904439059965,-1.4074965569561753,9.656661992686715,0.008743149075113628,-0.010895085075445713,0.028361600344907856,10.334872856007593,26.515675138494164,-45.0
1771539416.858463,21.802569925531863,1.681199846182578,-8.082165549200091,-0.19191399851779828,-1.4385963940741067,9.68453948707955,-0.00108422440710417,-0.004364969412006312,0.02181661564992912,11.022845125561837,26.20421622254475,-45.0
1771539416.9523528,23.439889458582147,1.6882541361055603,-8.086930105115979,-0.2397675323685829,-1.4362448350170223,9.733246979952062,0.0021849616280845943,-0.0021783565025340922,0.015271630954950384,12.962140523263088,25.01965053823056,-44.5625
1771539417.019357,23.439889458582147,1.6882541361055603,-8.086930105115979,-0.2397675323685829,-1.4362448350170223,9.733246979952062,0.0021849616280845943,-0.0021783565025340922,0.015271630954950384,12.962140523263088,25.01965053823056,-44.5625
1771539417.0495746,24.566781517136356,1.6659065363930776,-8.063251010616789,-0.22245630961799373,-1.394110237077486,9.762266834252829,-0.007630852884419825,-0.003284047567677393,0.04363323129985824,11.713277292927867,24.267759168472484,-45.5
1771539417.13252,24.566781517136356,1.6659065363930776,-8.063251010616789,-0.22245630961799373,-1.394110237077486,9.762266834252829,-0.007630852884419825,-0.003284047567677393,0.04363323129985824,11.713277292927867,24.267759168472484,-45.5
1771539417.1844585,27.041513067491948,1.6659126692424948,-8.081478140692013,-0.22998445889951685,-1.3775562377345454,9.916998818158822,0.0054508451004981065,0.00218991547224747,0.039269908169872414,13.214883968995133,23.207531060756878,-45.5
1771539417.2829146,27.041513067491948,1.6659126692424948,-8.081478140692013,-0.22998445889951685,-1.3775562377345454,9.916998818158822,0.0054508451004981065,0.00218991547224747,0.039269908169872414,13.214883968995133,23.207531060756878,-45.5
1771539417.3268728,27.894279532307255,1.6563694667964077,-8.078972389321025,-0.2426610725379198,-1.385200112244964,9.851100512863706,0.010911597889321965,-0.002165146251433089,0.05345070834232634,13.214883968995133,23.207531060756878,-45.5
1771539417.3916786,29.33316954272891,1.6814580791871139,-8.070358713169163,-0.23667446480277246,-1.3713569673507173,9.778061189699253,-0.005482219446862989,0.01853584564819129,0.032724923474893676,13.654654142623706,21.7081950595928,-45.75
1771539417.4618003,29.33316954272891,1.6814580791871139,-8.070358713169163,-0.23667446480277246,-1.3713569673507173,9.778061189699253,-0.005482219446862989,0.01853584564819129,0.032724923474893676,13.654654142623706,21.7081950595928,-45.75
1771539417.4949634,30.09337823804951,1.7079616935686657,-8.066361144636632,-0.12998884715644904,-1.411003305831497,9.84895708925649,-0.0011172500348566783,0.01745162124108712,0.037088246604879506,13.654654142623706,21.7081950595928,-45.75
1771539417.5488157,30.892274962079277,1.7199569744508472,-8.051973962362718,-0.05899076036925722,-1.4373875012118367,9.842615731135632,-0.006541674633152778,-0.0021915667536350956,-0.00545415391248228,14.717815205422593,21.272303955590505,-46.5625
1771539417.5996366,32.5605406875388,1.7314088633804423,-8.064051868060792,-0.16234307390736438,-1.4083422480984988,9.838395628143813,0.0011007372209804241,-0.006543325914540404,0.04799655442984406,15.84385464242802,20.586507749485147,-46.1875
1771539417.6655235,32.5605406875388,1.7314088633804423,-8.064051868060792,-0.16234307390736438,-1.4083422480984988,9.838395628143813,0.0011007372209804241,-0.006543325914540404,0.04799655442984406,15.84385464242802,20.586507749485147,-46.1875
1771539417.6992707,33.42928170789804,1.7428466227185053,-8.080006768677388,-0.23114820291665886,-1.3722874172353647,9.835587196744395,-0.007635806728582701,-1.1558969713377903e-05,0.019634954084936207,15.84385464242802,20.586507749485147,-46.1875
1771539417.7398894,34.360175554940945,1.750319301811816,-8.090943186568243,-0.2784729868176142,-1.3066397838370003,9.821331939529427,-0.003280745004902142,0.0054491938191104814,0.0272707695624114,16.968096461801757,21.088210182777264,-46.1875
1771539417.7741842,34.360175554940945,1.750319301811816,-8.090943186568243,-0.2784729868176142,-1.3066397838370003,9.821331939529427,-0.003280745004902142,0.0054491938191104814,0.0272707695624114,16.968096461801757,21.088210182777264,-46.1875
1771539417.8009958,35.243028500820635,1.7458947698252332,-8.09852179575548,-0.14121647916593577,-1.277591511656853,9.804160832341497,0.009815814512504418,0.0011056910651433003,0.020725784867432664,16.969326410707648,20.275711113715833,-46.5625
1771539417.822875,36.27231146621937,1.769690076730729,-8.113091104841631,-0.17029769006459827,-1.2584425068802787,9.776008093785169,-0.0011007372209804241,0.006543325914540404,0.04363323129985824,16.969326410707648,20.275711113715833,-46.5625
1771539417.8759499,36.27231146621937,1.769690076730729,-8.113091104841631,-0.17029769006459827,-1.2584425068802787,9.776008093785169,-0.0011007372209804241,0.006543325914540404,0.04363323129985824,16.969326410707648,20.275711113715833,-46.5625
1771539417.9038215,37.15899742246341,1.7726955981620358,-8.119248727595993,-0.11269317484716276,-1.2589630228031234,9.697060750030879,0.005469009195761986,-0.009809209386953916,0.038179077387375956,17.718663271199645,20.714345949892813,-47.75
1771539417.9423175,38.06449725374012,1.7617297642840857,-8.123624171102891,-0.15129549457010225,-1.2594258871403328,9.704734185393763,-0.0010495474979640362,-0.027272389597754413,0.04254240051736178,17.718663271199645,20.714345949892813,-47.75
1771539417.9973195,38.97229238622246,1.7511000972269772,-8.128604430175335,-0.1000676811105469,-1.2462370198827566,9.823574568958731,-0.007645714416908454,0.006533418226214652,0.008726646259971648,17.721407003374328,18.901848026601932,-47.75
1771539418.0174065,38.97229238622246,1.7511000972269772,-8.128604430175335,-0.1000676811105469,-1.2462370198827566,9.823574568958731,-0.007645714416908454,0.006533418226214652,0.008726646259971648,17.721407003374328,18.901848026601932,-47.75
1771539418.0500162,39.865207692584264,1.7659391281886134,-8.124820606424452,-0.2064808017863884,-1.2309824388166233,9.90266151668715,0.007635806728582701,1.1558969713377903e-05,0.044724062082354694,17.721407003374328,18.901848026601932,-47.75
1771539418.0831316,41.8849777189487,1.7589496866099406,-8.111937097926601,-0.13680301415098103,-1.2206180070082866,9.798072746697308,-0.0021519360003320856,-0.01963823415055934,0.04363323129985824,18.84640571438246,18.903551032779323,-49.5
1771539418.1450257,41.92546390461901,1.7553798173340125,-8.11431013918246,-0.21414145090167738,-1.2540492475561817,9.728470088602181,-0.009795999135852914,-0.01419564545699936,0.0272707695624114,18.84640571438246,18.903551032779323,-49.5
1771539418.171396,41.92546390461901,1.7553798173340125,-8.11431013918246,-0.21414145090167738,-1.2540492475561817,9.728470088602181,-0.009795999135852914,-0.01419564545699936,0.0272707695624114,18.84640571438246,18.903551032779323,-49.5
1771539418.2060285,43.57133483142408,1.779375241618504,-8.102180254179567,-0.21385172745216652,-1.487097677444852,9.672502820853076,0.002191566753635096,-0.006541674633152779,0.038179077387375956,19.15890535632916,18.904024090050818,-49.375
1771539418.2511904,43.57133483142408,1.779375241618504,-8.102180254179567,-0.21385172745216652,-1.487097677444852,9.672502820853076,0.002191566753635096,-0.006541674633152779,0.038179077387375956,19.15890535632916,18.904024090050818,-49.375
1771539418.2991526,44.51089028776567,1.7546833243410378,-8.08665427002947,-0.19166715867395978,-1.5349754325400415,9.675010711026701,0.013108118487119938,-0.011979309482549882,0.02399827721492203,19.157864630331865,19.591523302333567,-48.5
1771539418.3331134,45.23427492018999,1.707040132673249,-8.09352150383969,-0.17708587183878619,-1.4464136602411215,9.676679683922279,-0.009800952980015789,-0.010923156859035344,0.00545415391248228,19.157864630331865,19.591523302333567,-48.5
1771539418.4014592,46.33136229628931,1.6980023455024038,-8.106158951889679,-0.15065664896068018,-1.3874514712053347,9.76810838283826,-0.005457450226048609,0.002173402658371216,0.05672320068981571,21.035606214186775,17.78186372267167,-50.1875
1771539418.4297345,46.33136229628931,1.6980023455024038,-8.106158951889679,-0.15065664896068018,-1.3874514712053347,9.76810838283826,-0.005457450226048609,0.002173402658371216,0.05672320068981571,21.035606214186775,17.78186372267167,-50.1875
1771539418.492798,48.07107914681834,1.6944245216929372,-8.105483034829907,-0.25172986315836693,-1.3835928360138847,9.875015926769814,0.002183310346696969,-0.0010875269698794208,-0.011999138607461015,20.222634087853844,18.09313341571248,-51.0
1771539418.5330734,48.846214079912556,1.6987574175320712,-8.101123648017264,-0.33061336637009353,-1.4629211772385644,9.91013427201425,-3.302562775250829e-06,0.0021816590653093433,0.050178215994836975,20.222634087853844,18.09313341571248,-51.0
1771539418.6017613,49.68617851587126,1.7141098886751025,-8.093399409539403,-0.282791666752305,-1.4921456338217882,9.89670890969629,-0.0010792705629412936,-0.007637458009970326,-0.004363323129985824,21.72092936302063,19.2204028016238,-51.6875
1771539418.6211762,49.68617851587126,1.7141098886751025,-8.093399409539403,-0.282791666752305,-1.4921456338217882,9.89670890969629,-0.0010792705629412936,-0.007637458009970326,-0.004363323129985824,21.72092936302063,19.2204028016238,-51.6875
1771539418.6601615,51.22030815429644,1.708863064845465,-8.10828409581372,-0.25096685986005407,-1.511594183219353,9.817527135191103,-0.004326989940090928,-0.024004854843953274,0.05126904677733343,21.72092936302063,19.2204028016238,-51.6875
1771539418.7139075,51.22075557597898,2.07119735548651,-8.910244373096958,-0.22989414563647811,-1.4542897102225334,9.718000984873807,0.005483870728250615,-0.01962667518084596,0.026179938779914945,21.471970375460565,18.532525143523856,-51.375
1771539418.7355294,52.049509083726356,1.6923319869043594,-8.1015473305146,-0.2426313527150414,-1.416194733769135,9.698599007520064,0.006564792572579535,-0.013080046703530307,0.037088246604879506,21.471970375460565,18.532525143523856,-51.375
1771539418.7770693,52.049509083726356,1.6923319869043594,-8.1015473305146,-0.2426313527150414,-1.416194733769135,9.698599007520064,0.006564792572579535,-0.013080046703530307,0.037088246604879506,21.471970375460565,18.532525143523856,-51.375
1771539418.8165603,52.73007126749401,1.6870545269262234,-8.125577752182007,-0.17751544850094342,-1.3907315494572032,9.712448101983991,-0.007620945196094073,-0.009829024763605422,0.03381575425739013,22.158901919017516,18.908565439857192,-52.5
1771539418.8515403,53.431884028126944,1.6960315869910083,-8.127265874187325,-0.2544535118999295,-1.474321616846538,9.822017870864794,-0.014182435205898356,0.0010693628746155411,0.04254240051736178,22.158901919017516,18.908565439857192,-52.5
1771539418.9213362,53.99286364707682,1.7015273519047,-8.128951660829074,-0.18532219808669792,-1.4695556353204526,9.894935328080452,0.0021750539397588416,0.004366620693393937,0.04908738521234052,22.15786119302022,19.59606465213994,-53.375
1771539418.946694,54.920489208546385,1.7110550392373323,-8.127959715135363,-0.11255521799465622,-1.4663434176612666,9.893284405706314,-0.009820768356667293,0.0021667975328207145,0.025089107997418487,22.53238770608477,19.909131962812438,-53.0
1771539419.003063,55.001072572642144,1.7233181544613079,-8.139492714180736,-0.0641599882486397,-1.4441350754443671,9.855389506527823,0.0032741398793516402,-0.0010858756884917953,0.04254240051736178,22.53238770608477,19.909131962812438,-53.0
1771539419.0503979,55.46815865035615,1.7254994261013978,-8.148695554354859,-0.12227141607670478,-1.4294923936840975,9.866967103218812,-0.009820768356667293,0.0021667975328207145,0.018544123302439753,23.219886918367514,19.910172688809734,-54.1875
1771539419.0981443,56.07891004874871,1.7380368761946707,-8.155902977164832,-0.16083758289226893,-1.4899951179084776,9.837875635705922,-0.0010924808140422972,0.0010891782512670461,0.04581489286485115,23.219886918367514,19.910172688809734,-54.1875
1771539419.1579385,56.07891004874871,1.7380368761946707,-8.155902977164832,-0.16083758289226893,-1.4899951179084776,9.837875635705922,-0.0010924808140422972,0.0010891782512670461,0.04581489286485115,23.219886918367514,19.910172688809734,-54.1875
1771539419.23006,56.88881871888315,1.7772355021844877,-8.153506862912582,-0.17312250459735987,-1.5302387499235497,9.841931371000314,0.005444239974947605,0.006553233602866157,0.03599741582238305,23.15786004724967,19.59757843540873,-53.6875
1771539419.2587645,56.88881871888315,1.7772355021844877,-8.153506862912582,-0.17312250459735987,-1.5302387499235497,9.841931371000314,0.005444239974947605,0.006553233602866157,0.03599741582238305,23.15786004724967,19.59757843540873,-53.6875
1771539419.2906547,57.2785232564449,1.7674390727404865,-8.151597264795297,-0.17004187521361874,-1.5558309012704237,9.84977171455783,-0.005422773316908475,-0.02073401752737689,0.05672320068981571,23.843656253355032,20.723617872414156,-54.5
1771539419.3173704,57.36094104442185,1.7576933985547352,-8.15112541453945,-0.17004187521361874,-1.5558309012704237,9.84977171455783,-0.005422773316908475,-0.02073401752737689,0.05672320068981571,23.843656253355032,20.723617872414156,-54.5
1771539419.3338983,57.68786023627959,1.749594632219755,-8.147092300346142,-0.16258308423520876,-1.5338851149512962,9.85319319029567,-0.00544589125633523,-0.005462404070211485,0.037088246604879506,23.843656253355032,20.723617872414156,-54.5
1771539419.3519557,57.768086511901785,1.7710167193483852,-8.145462449582656,-0.15761934215923154,-1.519280439306413,9.838744585642218,-0.0054475425377228555,-0.004371574537556814,0.022907446432425576,23.843656253355032,20.723617872414156,-54.5
1771539419.4247885,58.185145033330016,1.7761928772182414,-8.152619111448079,-0.09410408551370049,-1.509470042875234,9.829129200646834,-0.008739846512338377,0.008713426010136369,0.011999138607461015,23.467615957021692,21.410549415971108,-55.0
1771539419.4518492,58.27797352299143,1.792275813049687,-8.15358956387568,-0.17235548692176694,-1.4395665798912558,9.822730269343296,-0.0065482797587032805,0.0021717513769835906,0.025089107997418487,23.467615957021692,21.410549415971108,-55.0
1771539419.4709868,58.27797352299143,1.792275813049687,-8.15358956387568,-0.17235548692176694,-1.4395665798912558,9.822730269343296,-0.0065482797587032805,0.0021717513769835906,0.025089107997418487,23.467615957021692,21.410549415971108,-55.0
1771539419.5059013,58.35965316967708,1.794721903910096,-8.146402434715018,-0.16756408656539487,-1.3929605219879735,9.80509140521226,0.0054475425377228555,0.004371574537556814,0.004363323129985824,24.21808815496528,21.099185111475997,-55.0
1771539419.526572,58.50925703543752,1.8531115682757922,-8.157646710005576,-0.2246481701838959,-1.321894564516478,9.790007826464759,0.007599478538054942,0.02400980868811615,0.04799655442984406,24.21808815496528,21.099185111475997,-55.0
1771539419.5570948,58.56518034292482,1.8605300051853075,-8.162866035554684,-0.28254559663623285,-1.3816747983096123,9.78331498501023,0.007629201603032199,0.004374877100332064,0.015271630954950384,23.467048288295896,21.785548986307152,-56.1875
1771539419.6321666,58.56518034292482,1.8605300051853075,-8.162866035554684,-0.28254559663623285,-1.3816747983096123,9.78331498501023,0.007629201603032199,0.004374877100332064,0.015271630954950384,23.467048288295896,21.785548986307152,-56.1875
1771539419.6652224,58.74150936875273,1.8539768918832742,-8.154515691797089,-0.3577959171920886,-1.4716901957442923,9.916010553786275,-0.006523510537888899,-0.014190691612836483,0.03599741582238305,23.467048288295896,21.785548986307152,-56.1875
1771539419.7157824,58.725920786980126,1.8528784717788722,-8.154821368837458,-0.4078741649208514,-1.531594437199197,10.004317972500104,-0.007637458009970326,0.0010792705629412936,0.020725784867432664,23.4663860081158,22.223048485032535,-55.6875
1771539419.7488604,59.54253038693677,1.9097457059951317,-8.106832788062396,-0.3341622911609514,-1.5679528920663108,9.992838227341949,0.002193218035022721,-0.00763250416580745,0.009817477042468103,23.4663860081158,22.223048485032535,-55.6875
1771539419.8312552,58.964787562303115,1.892452746891605,-8.162359095940344,-0.28521926562028554,-1.518556664388866,9.961782803225116,-0.0076473656982960795,0.007624247758869323,0.055632369907319255,24.96581662073418,22.600318730271766,-56.5
1771539419.9504066,59.01582740634013,1.8759785910974383,-8.197165597814935,-0.3027336990367986,-1.5459719250161665,9.907664648313988,0.004594497524886244,-0.1527095294461035,0.03490658503988659,24.652843921515977,22.912345314946975,-55.6875
1771539419.967558,59.01582740634013,1.8759785910974383,-8.197165597814935,-0.3027336990367986,-1.5459719250161665,9.907664648313988,0.004594497524886244,-0.1527095294461035,0.03490658503988659,24.652843921515977,22.912345314946975,-55.6875
1771539420.0119765,58.69502525110604,1.8843678827054862,-8.201123420092557,-0.3145463358246254,-1.4605181306028518,9.905100737833227,-0.0010875269698794208,-0.0021833103466969684,0.011999138607461015,24.652843921515977,22.912345314946975,-55.6875
1771539420.0362005,58.661851904455446,1.8655107400442368,-8.186496189154667,-0.3090473372493086,-1.3902488984073265,9.869943366975845,-0.005439286130784729,-0.00982572220083017,0.022907446432425576,24.651803195518685,23.59984452722972,-57.375
1771539420.0551412,58.661851904455446,1.8655107400442368,-8.186496189154667,-0.3090473372493086,-1.3902488984073265,9.869943366975845,-0.005439286130784729,-0.00982572220083017,0.022907446432425576,24.651803195518685,23.59984452722972,-57.375
1771539420.1294987,58.59007391865054,1.8549986318111145,-8.20667612161559,-0.27193673637938515,-1.3434348715986129,9.863272087940418,0.007657273386621832,-0.014169224954797353,0.03599741582238305,24.651803195518685,23.59984452722972,-57.375
1771539420.1784458,58.59007391865054,1.8549986318111145,-8.20667612161559,-0.27193673637938515,-1.3434348715986129,9.863272087940418,0.007657273386621832,-0.014169224954797353,0.03599741582238305,24.651803195518685,23.59984452722972,-57.375
1771539420.2798126,57.757160460335115,1.9213644599670827,-8.158405854900304,-0.19279175864082812,-1.4029153876135205,9.793498835774411,0.004364969412006312,-0.00108422440710417,0.06217735460229799,23.150574965268614,24.410072921387965,-56.1875
1771539420.3310864,57.510789584256905,1.897653198997484,-8.165880552216413,-0.19446867199265083,-1.4187664361631576,9.785638212708674,-0.0032724885979640147,-4.953844162876244e-06,0.014180800172453928,24.961559105290704,25.4128155077921,-56.5
1771539420.3592563,57.510789584256905,1.897653198997484,-8.165880552216413,-0.19446867199265083,-1.4187664361631576,9.785638212708674,-0.0032724885979640147,-4.953844162876244e-06,0.014180800172453928,24.961559105290704,25.4128155077921,-56.5
1771539420.389851,57.37842317012651,1.8602663486042383,-8.175454179995764,-0.19553906512872635,-1.459421102776427,9.84396417830641,-0.008696913196260116,-0.01964814183888509,0.026179938779914945,24.961559105290704,25.4128155077921,-56.5
1771539420.4418845,57.29135949926153,1.8478918910975173,-8.180206992399729,-0.19625139980370981,-1.486476329265175,9.882779456867976,-0.0043567130050681845,-0.004369923256169188,0.026179938779914945,24.213262970796006,24.286681459332375,-56.5
1771539420.473979,57.29135949926153,1.8478918910975173,-8.180206992399729,-0.19625139980370981,-1.486476329265175,9.882779456867976,-0.0043567130050681845,-0.004369923256169188,0.026179938779914945,24.213262970796006,24.286681459332375,-56.5
1771539420.5004573,57.05219805749288,1.8117162081350946,-8.17813638795364,-0.19675076944328548,-1.4877557408938096,9.928681261399541,0.005462404070211485,-0.00544589125633523,0.06544984694978735,24.213262970796006,24.286681459332375,-56.5
1771539420.5260398,57.05219805749288,1.8117162081350946,-8.17813638795364,-0.19675076944328548,-1.4877557408938096,9.928681261399541,0.005462404070211485,-0.00544589125633523,0.06544984694978735,24.213262970796006,24.286681459332375,-56.5
1771539420.5586388,57.05219805749288,1.8117162081350946,-8.17813638795364,-0.19675076944328548,-1.4877557408938096,9.928681261399541,0.005462404070211485,-0.00544589125633523,0.06544984694978735,24.213262970796006,24.286681459332375,-56.5
1771539420.619559,56.8228817598536,1.8172334207500773,-8.17824573903511,-0.20377331010927652,-1.4886173025889713,9.942502841021948,-0.0010809218443289192,-0.006546628477315655,-0.015271630954950384,24.211559964618615,25.411680170340507,-57.6875
1771539420.6624086,56.145000032645974,1.8186338694553075,-8.178033223179911,-0.2753438261932176,-1.4926370456301108,9.951700947863499,-0.006525161819276524,-0.013099862080181813,-0.006544984694978736,23.460330875040636,26.22304390195034,-57.0
1771539420.7091277,55.62135420750555,1.8154785969459815,-8.176155041066034,-0.3229478862813566,-1.512037679093462,9.900955286192534,-0.0032477193771496336,-0.016367396833982948,0.03599741582238305,23.460330875040636,26.22304390195034,-57.0
1771539420.7791967,55.62135420750555,1.8154785969459815,-8.176155041066034,-0.3229478862813566,-1.512037679093462,9.900955286192534,-0.0032477193771496336,-0.016367396833982948,0.03599741582238305,23.460330875040636,26.22304390195034,-57.0
1771539420.8208158,55.558494594139006,1.8201566363708985,-8.164572066457474,-0.3546177289495492,-1.5316387996932241,9.867184615216692,-0.0021849616280845943,0.0021783565025340922,0.05235987755982989,24.21099229589282,25.78667974067655,-58.1875
1771539420.9156647,54.427067998011026,1.8050323930273424,-8.171782051660802,-0.19918506274416342,-1.533004858927362,9.924465597200895,0.006553233602866157,-0.005444239974947605,0.050178215994836975,23.146979730005235,26.78507020018291,-57.25
1771539420.9797153,54.427067998011026,1.8050323930273424,-8.171782051660802,-0.19918506274416342,-1.533004858927362,9.924465597200895,0.006553233602866157,-0.005444239974947605,0.050178215994836975,23.146979730005235,26.78507020018291,-57.25
1771539421.0035722,54.17415453389865,1.7899667108119433,-8.166084915543717,-0.1419527222960835,-1.4416963923504267,9.825963565540944,0.0010974346582051733,-0.004361666849231061,0.019634954084936207,22.460332020811183,26.22153011868155,-56.875
1771539421.049738,54.17415453389865,1.7899667108119433,-8.166084915543717,-0.1419527222960835,-1.4416963923504267,9.825963565540944,0.0010974346582051733,-0.004361666849231061,0.019634954084936207,22.460332020811183,26.22153011868155,-56.875
1771539421.0876486,53.93321601522466,1.7791970878079222,-8.182620803853707,-0.11724567055337529,-1.3809518829224192,9.760411563811038,-0.019625023899458333,-0.006574700260905287,0.03490658503988659,22.460332020811183,26.22153011868155,-56.875
1771539421.1182582,53.257574236623284,1.7998710464541354,-8.174382677206381,-0.10081859493685931,-1.330491766834945,9.716787438923625,0.0021618436886578383,0.01309325695463131,0.05345070834232634,22.708817951099757,27.2219074187282,-57.25
1771539421.211547,52.97925391521608,1.8300895315663976,-8.184834827293404,-0.05971982345560868,-1.3370068437830152,9.674375624295179,0.0010726654373907922,0.012000776140589012,0.008726646259971648,22.708817951099757,27.2219074187282,-57.25
1771539421.2372746,52.97925391521608,1.8300895315663976,-8.184834827293404,-0.05971982345560868,-1.3370068437830152,9.674375624295179,0.0010726654373907922,0.012000776140589012,0.008726646259971648,22.708817951099757,27.2219074187282,-57.25
1771539421.3157263,52.40881850560522,1.8270397382432955,-8.175425259345426,-0.03236905013819561,-1.3413425547137778,9.646151035430961,0.0010924808140422972,-0.0010891782512670461,0.00545415391248228,23.45824942304605,27.598042326515838,-57.1875
1771539421.363007,52.17330987769631,1.828938336984352,-8.185438884865931,-0.14120555864597104,-1.3945969634410909,9.647438557075056,-0.0021800077839217178,-0.0010941320954299225,0.018544123302439753,23.45824942304605,27.598042326515838,-57.1875
1771539421.4441786,52.17330987769631,1.828938336984352,-8.185438884865931,-0.14120555864597104,-1.3945969634410909,9.647438557075056,-0.0021800077839217178,-0.0010941320954299225,0.018544123302439753,23.45824942304605,27.598042326515838,-57.1875
1771539421.4823914,51.0818156582784,1.8363312719742355,-8.15396036804575,-0.21363503927443395,-1.4300371775583933,9.731923181029627,0.0032840475676773925,-0.007630852884419825,0.05345070834232634,22.70825028237396,27.596906989064244,-56.375
1771539421.5264256,51.0818156582784,1.8363312719742355,-8.15396036804575,-0.21363503927443395,-1.4300371775583933,9.731923181029627,0.0032840475676773925,-0.007630852884419825,0.05345070834232634,22.70825028237396,27.596906989064244,-56.375
1771539421.577806,50.52226795125216,1.8531758455383247,-8.151729122258539,-0.2518462998858097,-1.4235010819666218,9.771421195979709,-0.010918203014872467,0.006528464382051776,0.02181661564992912,22.70825028237396,27.596906989064244,-56.375
1771539421.6617103,49.45819909542261,1.9031498909555176,-8.156973652663321,-0.27727546697493105,-1.4191513833632696,9.827812689073127,-0.0032873501304526436,0.009812511949729168,0.019634954084936207,21.330981182905276,29.094823818413833,-57.6875
1771539421.762247,49.62614111080075,1.9244050638515846,-8.157527928473845,-0.2942388038034105,-1.3894958445353447,9.83523459242667,-0.004353410442292934,-0.0065515823214785315,-0.016362461737446838,21.330981182905276,29.094823818413833,-57.6875
1771539421.792186,49.62614111080075,1.9244050638515846,-8.157527928473845,-0.2942388038034105,-1.3894958445353447,9.83523459242667,-0.004353410442292934,-0.0065515823214785315,-0.016362461737446838,21.330981182905276,29.094823818413833,-57.6875
1771539421.8315773,49.73452491449536,1.944911818237876,-8.150085464328317,-0.3355324103584797,-1.4367081461784266,9.880315126688192,-0.001095783376817548,0.0032708373165763896,0.037088246604879506,20.954278606391842,30.219254860696168,-56.5
1771539421.8685842,48.64318786965692,1.9808388574270068,-8.147513993088754,-0.40640809867629846,-1.528405176332284,9.85679393133956,0.001104039783755675,-0.008724984979849746,0.04145156973486533,20.954278606391842,30.219254860696168,-56.5
1771539421.97787,48.17988915000459,2.004079518394497,-8.16100531134602,-0.4535750775184917,-1.5894285255767326,9.80768972151082,-0.01746648277357575,0.008700215759035367,0.022907446432425576,21.641304761403095,30.532795228640165,-57.6875
1771539422.042681,48.17988915000459,2.004079518394497,-8.16100531134602,-0.4535750775184917,-1.5894285255767326,9.80768972151082,-0.01746648277357575,0.008700215759035367,0.022907446432425576,21.641304761403095,30.532795228640165,-57.6875
1771539422.060212,45.74190157393677,2.0077122113946744,-8.172848462631846,-0.266264656530966,-1.6734156939691949,9.678588397904484,0.015268310894390152,0.002204777004736099,0.0272707695624114,19.016307769050787,30.528821547559588,-56.875
1771539422.1966326,45.25254989745552,2.043936262382853,-8.151772910180869,-0.21645128857173596,-1.6990940944010364,9.662335036037467,0.007637458009970326,-0.0010792705629412936,0.05672320068981571,19.016307769050787,30.528821547559588,-56.875
1771539422.2431376,43.98587687624514,2.041953902616633,-8.13059900886713,-0.20671680376877113,-1.7162182294608426,9.705040392594025,-0.009817465793892043,-1.486153248862873e-05,-0.003272492347489368,19.450495866875688,32.71698132136661,-58.375
1771539422.2881382,43.98587687624514,2.041953902616633,-8.13059900886713,-0.20671680376877113,-1.7162182294608426,9.705040392594025,-0.009817465793892043,-1.486153248862873e-05,-0.003272492347489368,19.450495866875688,32.71698132136661,-58.375
1771539422.3232934,44.079092393622055,2.009590009555886,-8.144688544560283,-0.20031963325987479,-1.6740924240605988,9.733460330332324,-0.0010710141560031667,-0.013091605673243686,0.02945243112740431,19.450495866875688,32.71698132136661,-58.375
1771539422.3579543,44.079092393622055,2.009590009555886,-8.144688544560283,-0.20031963325987479,-1.6740924240605988,9.733460330332324,-0.0010710141560031667,-0.013091605673243686,0.02945243112740431,19.450495866875688,32.71698132136661,-58.375
1771539422.4537375,44.19577191256425,1.9606360185115908,-8.150632594470395,-0.15600211363837072,-1.5924756798597761,9.789169710206169,0.002191566753635096,-0.006541674633152779,0.04908738521234052,19.452198873053078,31.591982610358478,-57.5625
1771539422.4820828,43.06753626416559,1.985707027832347,-8.1504546724025,-0.12650929938939165,-1.5381606483129,9.78610233970983,-0.0032873501304526436,0.009812511949729168,0.0719948316447661,19.452198873053078,31.591982610358478,-57.5625
1771539422.5339842,42.45855934336458,1.997219488494753,-8.147524385924628,-0.09688734753232965,-1.475238547237996,9.810821932567846,0.00216844881420834,0.008729938824012623,0.02181661564992912,19.012428699424508,33.09131861152256,-58.875
1771539422.5889685,41.87782884477984,2.0132156127729677,-8.150494697907492,-0.07717426947033858,-1.4333645918585716,9.76371542303984,0.006521859256501274,0.015281521145491155,0.04254240051736178,19.012428699424508,33.09131861152256,-58.875
1771539422.6319478,41.87782884477984,2.0132156127729677,-8.150494697907492,-0.07717426947033858,-1.4333645918585716,9.76371542303984,0.006521859256501274,0.015281521145491155,0.04254240051736178,19.012428699424508,33.09131861152256,-58.875
1771539422.6631367,41.29330654370203,1.9969292444975426,-8.128579587946001,-0.050695259827777714,-1.3920972557214004,9.732366567163146,0.003262580909638262,0.0065499310400909064,0.037088246604879506,18.69898294293481,33.71584483814447,-57.25
1771539422.7171266,40.650304256557526,1.9907001528330064,-8.12517197901112,-0.03305351960403306,-1.3780147360068187,9.70815914205955,0.00546405535159911,-0.006536720788989903,0.025089107997418487,18.69898294293481,33.71584483814447,-57.25
1771539422.758216,40.185917895715065,1.9996135468612002,-8.125268157486891,-0.021313138556281957,-1.3686429764488173,9.692049371067764,-0.0032724885979640147,-4.953844162876244e-06,0.039269908169872414,18.01299751392085,32.714805257917725,-58.0625
1771539422.7874842,40.185917895715065,1.9996135468612002,-8.125268157486891,-0.021313138556281957,-1.3686429764488173,9.692049371067764,-0.0032724885979640147,-4.953844162876244e-06,0.039269908169872414,18.01299751392085,32.714805257917725,-58.0625
1771539422.8364725,39.64098506043044,1.9872357657437278,-8.124983856940313,-0.016845153992242047,-1.3624112389265157,9.721469838918496,0.0032840475676773925,-0.007630852884419825,0.01090830782496456,18.01299751392085,32.714805257917725,-58.0625
1771539422.8686569,39.64098506043044,1.9872357657437278,-8.124983856940313,-0.016845153992242047,-1.3624112389265157,9.721469838918496,0.0032840475676773925,-0.007630852884419825,0.01090830782496456,18.01299751392085,32.714805257917725,-58.0625
1771539422.8984706,38.26913884551061,2.0357164369317298,-8.120015922686445,-0.05655064693211122,-1.2741936946963004,9.896740158775716,-0.013094908236018936,0.0032526732213125097,0.06544984694978735,17.69898408870536,33.71433105487568,-58.0625
1771539422.9732933,38.26913884551061,2.0357164369317298,-8.120015922686445,-0.05655064693211122,-1.2741936946963004,9.896740158775716,-0.013094908236018936,0.0032526732213125097,0.06544984694978735,17.69898408870536,33.71433105487568,-58.0625
1771539423.0104172,37.86014248480449,2.0487506736037675,-8.120246608103633,-0.0972684953124379,-1.2293951157817484,9.964732846226438,-0.010903341482383838,-0.003289001411840269,0.00545415391248228,18.447753280471556,34.527965461388696,-57.5625
1771539423.0540724,37.86014248480449,2.0487506736037675,-8.120246608103633,-0.0972684953124379,-1.2293951157817484,9.964732846226438,-0.010903341482383838,-0.003289001411840269,0.00545415391248228,18.447753280471556,34.527965461388696,-57.5625
1771539423.09158,36.85250244074491,2.0569909701208835,-8.133544858798944,-0.17777102774969858,-1.2766006634487315,9.973184991416296,-0.0010941320954299225,0.0021800077839217178,0.011999138607461015,18.009686113020372,34.902302751544646,-58.375
1771539423.155634,36.328989846724056,2.059799370293795,-8.13003294137538,-0.2412836757296913,-1.3715876690401831,9.911907565477112,0.0010825731257165445,0.005455798944660983,0.038179077387375956,18.009686113020372,34.902302751544646,-58.375
1771539423.2050798,36.328989846724056,2.059799370293795,-8.13003294137538,-0.2412836757296913,-1.3715876690401831,9.911907565477112,0.0010825731257165445,0.005455798944660983,0.038179077387375956,18.009686113020372,34.902302751544646,-58.375
1771539423.2476559,35.27472129600371,2.069277892393041,-8.136668923308829,-0.28351518705866774,-1.4582162153090397,9.854402564491686,0.00108422440710417,0.004364969412006312,0.02399827721492203,17.321146174740328,35.5887612378301,-58.375
1771539423.298783,34.61142485374687,2.070952206033175,-8.140327150924556,-0.27820415376426355,-1.4924001522832249,9.806098293586878,0.0032724885979640147,4.953844162876244e-06,0.02181661564992912,17.321146174740328,35.5887612378301,-58.375
1771539423.343363,34.120500369144125,2.0783770736780687,-8.143860544669202,-0.2613247353555546,-1.4917131702612871,9.773952340893791,0.006558187447029033,-0.008716728572911621,-0.001090830782496456,17.31887549983714,37.088759519174275,-58.75
1771539423.3952572,33.70935992448276,2.0793901581405327,-8.178622960676472,-0.2502030739909822,-1.4176636181588236,9.75255956847036,-0.02181328809031818,-0.0022146846930618516,0.03381575425739013,17.31887549983714,37.088759519174275,-58.75
1771539423.442428,33.146058725183515,2.0774585795990865,-8.170174482671474,-0.22611670341009077,-1.3415982865549458,9.70821691202962,0.004369923256169189,-0.0043567130050681845,0.07963064712224129,16.50571415059562,37.52502906899377,-58.0625
1771539423.494931,33.146058725183515,2.0774585795990865,-8.170174482671474,-0.21008749285089665,-1.2909776580779941,9.748954715361943,-0.008720031135686871,-0.00437652838171969,-0.006544984694978736,16.19387678882901,37.08705651299689,-59.25
1771539423.5241003,32.66947127020703,2.075001705673645,-8.161851556325821,-0.21008749285089665,-1.2909776580779941,9.748954715361943,-0.008720031135686871,-0.00437652838171969,-0.006544984694978736,16.19387678882901,37.08705651299689,-59.25
1771539423.5394013,32.340506819447086,2.080434554427394,-8.166765036392144,-0.17265936928505604,-1.257249685102976,9.78610060353048,-0.006549931040090906,0.0032625809096382625,0.05781403147231216,16.19387678882901,37.08705651299689,-59.25
1771539423.5554938,32.340506819447086,2.080434554427394,-8.166765036392144,-0.17265936928505604,-1.257249685102976,9.78610060353048,-0.006549931040090906,0.0032625809096382625,0.05781403147231216,16.19387678882901,37.08705651299689,-59.25
1771539423.618706,31.941216532251797,2.0693636626220906,-8.183938548434185,-0.25121678165358086,-1.388836035083514,9.810820777159883,-0.0021816590653093433,-3.302562775250829e-06,0.01090830782496456,17.316604824933954,38.58875780051845,-58.875
1771539423.6391687,31.941216532251797,2.0693636626220906,-8.183938548434185,-0.25121678165358086,-1.388836035083514,9.810820777159883,-0.0021816590653093433,-3.302562775250829e-06,0.01090830782496456,17.316604824933954,38.58875780051845,-58.875
1771539423.6735945,31.594684732986025,2.107130092731816,-8.179506393973785,-0.2633545675459718,-1.4763445157901025,9.86741311705565,-0.0010941320954299225,0.0021800077839217178,0.05672320068981571,17.316604824933954,38.58875780051845,-58.875
1771539423.7166235,31.236697454688937,2.11228640333704,-8.191873971291752,-0.27152327640383145,-1.4743684904239565,9.861588234883271,-0.0043600155678434355,-0.002188264190859845,0.022907446432425576,16.94160525459791,38.58819013179266,-58.875
1771539423.770854,31.236697454688937,2.11228640333704,-8.191873971291752,-0.27152327640383145,-1.4743684904239565,9.861588234883271,-0.0043600155678434355,-0.002188264190859845,0.022907446432425576,16.94160525459791,38.58819013179266,-58.875
1771539423.8032494,30.714734783133235,2.1088320509562113,-8.192627709784716,-0.2134733041189778,-1.4261257456636305,9.854366729158432,-0.004355061723680559,-0.00546075278882386,0.01090830782496456,16.94160525459791,38.58819013179266,-58.875
1771539423.8590355,29.948774112364735,2.136987426815184,-8.191410051232928,-0.17477080318620025,-1.440852248176648,9.849560897768056,-0.0065466284773156545,0.0010809218443289192,0.04799655442984406,16.940091471329122,39.58818898602211,-56.875
1771539423.883183,29.578918395786083,2.146260029728084,-8.19638050627584,-0.14908561398858694,-1.4038210608490045,9.846362670662415,0.007630852884419825,0.003284047567677393,0.06981317007977318,16.940091471329122,39.58818898602211,-56.875
1771539423.908339,29.67129828308584,2.16138762298751,-8.19940564433292,-0.27565987778667916,-1.4931286293717427,9.827508727713553,0.0065466284773156545,-0.0010809218443289192,0.037088246604879506,16.939429191149024,40.02568848474749,-58.375
1771539423.990468,28.82309091406312,2.165402725519419,-8.24209597839968,-0.19274964571865805,-1.4787162566450225,9.788200745634873,-0.013089954391856059,-1.9815376651504977e-05,-0.001090830782496456,16.939429191149024,40.02568848474749,-58.375
1771539424.0385869,28.511678123078347,2.165078116093658,-8.24955260125535,-0.2713730636547889,-1.4726726424321224,9.775422169489719,-0.004351759160905308,-0.0076424118541332025,0.06326818538479445,16.939050745331826,40.275688198304856,-57.25
1771539424.0918796,28.31695836988352,2.1476390858520924,-8.268363736406211,-0.18989681880073667,-1.4651030258450517,9.743502387859932,0.010914900452097217,-0.004346805316742432,0.02399827721492203,16.939050745331826,40.275688198304856,-57.25
1771539424.10905,28.31695836988352,2.1476390858520924,-8.268363736406211,-0.18989681880073667,-1.4651030258450517,9.743502387859932,0.010914900452097217,-0.004346805316742432,0.02399827721492203,16.939050745331826,40.275688198304856,-57.25
1771539424.1387198,27.875854484582366,2.163502761361455,-8.236179332876572,-0.23602346046318792,-1.463562551663146,9.722260129752632,-0.004386436070045442,0.0152650083316149,0.04908738521234052,17.31405031566787,40.27625586703065,-56.375
1771539424.15828,27.875854484582366,2.163502761361455,-8.236179332876572,-0.23602346046318792,-1.463562551663146,9.722260129752632,-0.004386436070045442,0.0152650083316149,0.04908738521234052,17.31405031566787,40.27625586703065,-56.375
1771539424.2001643,27.711123554025416,2.1363161991129824,-8.235677221017548,-0.1764326952521082,-1.4423300141541398,9.708123644273796,-0.0010693628746155411,-0.014182435205898356,0.04799655442984406,17.31405031566787,40.27625586703065,-56.375
1771539424.2209134,27.711123554025416,2.1363161991129824,-8.235677221017548,-0.1764326952521082,-1.4423300141541398,9.708123644273796,-0.0010693628746155411,-0.014182435205898356,0.04799655442984406,17.31405031566787,40.27625586703065,-56.375
1771539424.2644827,27.356721314521767,2.144872118063436,-8.234005366642778,-0.22709361929049932,-1.42833671952652,9.745547535004992,0.005473963039924863,-0.013081697984917933,0.031634092692397225,16.499280571703256,41.77502419946894,-55.1875
1771539424.3029594,27.17211762521275,2.0908536631391312,-8.218137468533385,-0.2542493406967728,-1.3320414059796009,9.847390285502696,-0.010885177387119959,-0.015288126271041657,0.016362461737446838,16.499280571703256,41.77502419946894,-55.1875
1771539424.3397465,27.17211762521275,2.0908536631391312,-8.218137468533385,-0.2542493406967728,-1.3320414059796009,9.847390285502696,-0.010885177387119959,-0.015288126271041657,0.016362461737446838,16.499280571703256,41.77502419946894,-55.1875
1771539424.3600812,26.8000908863268,2.053783595748474,-8.241896315520961,-0.28434270665727446,-1.2286562346174483,9.883331576050946,0.0011073423465309258,-0.01090664404515909,0.031634092692397225,16.935644732977046,42.52568562032112,-56.0625
1771539424.3957422,26.8000908863268,2.053783595748474,-8.241896315520961,-0.28434270665727446,-1.2286562346174483,9.883331576050946,0.0011073423465309258,-0.01090664404515909,0.031634092692397225,16.935644732977046,42.52568562032112,-56.0625
1771539424.4133384,26.836341208858933,2.0443504559875336,-8.25116996759487,-0.2922517571165921,-1.2627133234669732,9.808624669084734,-0.004355061723680559,-0.00546075278882386,0.016362461737446838,17.311779640764684,41.77625414837483,-56.375
1771539424.4504266,26.33875686148454,2.056289649093095,-8.249000796411151,-0.2974442490094987,-1.3322094458979665,9.812429844346664,0.0010858756884917953,0.0032741398793516402,0.04799655442984406,17.311779640764684,41.77625414837483,-56.375
1771539424.505413,26.33875686148454,2.056289649093095,-8.249000796411151,-0.2974442490094987,-1.3322094458979665,9.812429844346664,0.0010858756884917953,0.0032741398793516402,0.04799655442984406,17.311779640764684,41.77625414837483,-56.375
1771539424.5397203,26.37455398885194,2.0536156060097865,-8.256657192727571,-0.3008997943602929,-1.3784583390532381,9.758095246952454,0.0021866129094722194,-0.003269186035188764,0.03490658503988659,16.93507706425125,42.900685190657164,-55.6875
1771539424.593372,26.36775535387656,2.0531537716756647,-8.25689353506651,-0.2697534062185214,-1.405840715198147,9.768767743246302,-0.011992519733650885,-0.004381482225882566,0.008726646259971648,16.93507706425125,42.900685190657164,-55.6875
1771539424.6119275,26.36775535387656,2.0531537716756647,-8.25689353506651,-0.2697534062185214,-1.405840715198147,9.768767743246302,-0.011992519733650885,-0.004381482225882566,0.008726646259971648,16.93507706425125,42.900685190657164,-55.6875
1771539424.65793,26.461097609592475,2.0546543532481025,-8.263583221892423,-0.2490258328381252,-1.4240633806413998,9.775870170310263,-0.013073441577979805,-0.01092811070319822,0.04363323129985824,17.68507620492334,42.90182052810876,-52.875
1771539424.677871,26.354202804161943,2.0300347688766727,-8.25483636136686,-0.23518122655428977,-1.4696414396792632,9.78059675618202,-0.0010594551862897887,-0.020727412401826385,0.05126904677733343,17.68507620492334,42.90182052810876,-52.875
1771539424.698608,26.426501293722197,2.019956934412574,-8.249774652710071,-0.2025520406046605,-1.499937682409738,9.73691068237778,0.0010891782512670461,0.001092480814042297,0.06435901616729091,17.310076634587293,42.901252859382964,-52.875
1771539424.7438672,26.506709882365993,2.013739125250936,-8.258546519239752,-0.18080729920226318,-1.5401701407631958,9.707838088266477,1.9815376651504977e-05,-0.013089954391856059,0.03381575425739013,17.310076634587293,42.901252859382964,-52.875
1771539424.7781382,26.506709882365993,2.013739125250936,-8.258546519239752,-0.18080729920226318,-1.5401701407631958,9.707838088266477,1.9815376651504977e-05,-0.013089954391856059,0.03381575425739013,17.310076634587293,42.901252859382964,-52.875
1771539424.81054,26.64585728015546,1.991331668928089,-8.271157680389555,-0.22320325057165646,-1.5670304765317058,9.708561271891478,0.004369923256169189,-0.0043567130050681845,0.039269908169872414,17.623143945259795,42.52672634631841,-52.0625
1771539424.8428721,26.64585728015546,1.991331668928089,-8.271157680389555,-0.22320325057165646,-1.5670304765317058,9.708561271891478,0.004369923256169189,-0.0043567130050681845,0.039269908169872414,17.623143945259795,42.52672634631841,-52.0625
1771539424.8652894,26.775930482946784,1.9838182496642345,-8.258408097139759,-0.25141728261417967,-1.5849057299360387,9.719077877637382,-0.00763250416580745,-0.002193218035022721,0.02945243112740431,17.623143945259795,42.52672634631841,-52.0625
1771539424.9078932,26.775930482946784,1.9838182496642345,-8.258408097139759,-0.25141728261417967,-1.5849057299360387,9.719077877637382,-0.00763250416580745,-0.002193218035022721,0.02945243112740431,17.623143945259795,42.52672634631841,-52.0625
1771539424.9375732,26.6594460636545,1.9922575786095922,-8.270689652455202,-0.2701427680257422,-1.630252590142847,9.756182566648972,0.006553233602866157,-0.005444239974947605,0.01090830782496456,17.18564444653441,42.52606406613832,-52.5
1771539424.979355,26.6594460636545,1.9922575786095922,-8.270689652455202,-0.2701427680257422,-1.630252590142847,9.756182566648972,0.006553233602866157,-0.005444239974947605,0.01090830782496456,17.18564444653441,42.52606406613832,-52.5
1771539425.0384996,26.72424724912877,1.9901018023792973,-8.271106054228738,-0.24263017944113993,-1.5499810939018073,9.770839987577693,4.953844162876244e-06,-0.0032724885979640147,0.04581489286485115,17.18564444653441,42.52606406613832,-52.5
1771539425.0649586,26.740130426743796,1.9828731831334934,-8.265907555107608,-0.22432085907383914,-1.4965613098447619,9.790629672593594,0.006530115663439401,0.009827373482217796,0.037088246604879506,17.936116644478,42.21469976164321,-50.875
1771539425.0838673,26.740130426743796,1.9828731831334934,-8.265907555107608,-0.22432085907383914,-1.4965613098447619,9.790629672593594,0.006530115663439401,0.009827373482217796,0.037088246604879506,17.936116644478,42.21469976164321,-50.875
1771539425.1598215,26.67509833386248,1.9902266014794154,-8.25709605305812,-0.21213621089791024,-1.4610110402928862,9.837250603979605,-0.013073441577979805,-0.01092811070319822,0.02399827721492203,17.1873474527118,41.401065355130186,-48.875
1771539425.206917,26.80424172628742,1.9926884558130014,-8.256330435021097,-0.2608234046783926,-1.4842703274331805,9.868276313027067,0.0065466284773156545,-0.0010809218443289192,0.05126904677733343,17.1873474527118,41.401065355130186,-48.875
1771539425.2634816,26.79041592357987,1.9897829821400153,-8.278780557317182,-0.31486756819209416,-1.4565283628828898,9.874807867654814,-0.0010726654373907922,-0.012000776140589012,0.026179938779914945,17.936116644478,42.21469976164321,-50.5
1771539425.2951672,26.79041592357987,1.9897829821400153,-8.278780557317182,-0.31486756819209416,-1.4565283628828898,9.874807867654814,-0.0010726654373907922,-0.012000776140589012,0.026179938779914945,17.936116644478,42.21469976164321,-50.5
1771539425.3267117,26.75418738048735,2.844937308317516,-8.069508824097959,-0.25905917681195084,-1.4042433353192403,9.91334092270471,-8.256406938127073e-06,0.005454147663273358,0.013089969389957472,17.1873474527118,41.401065355130186,-48.0625
1771539425.354934,26.75418738048735,2.844937308317516,-8.069508824097959,-0.25905917681195084,-1.4042433353192403,9.91334092270471,-8.256406938127073e-06,0.005454147663273358,0.013089969389957472,17.1873474527118,41.401065355130186,-48.0625
1771539425.3935745,26.912765750574305,1.991805642556231,-8.278247769877957,-0.24864473234681334,-1.3929044988528594,9.938984240397987,-0.006549931040090906,0.0032625809096382625,0.04581489286485115,17.1873474527118,41.401065355130186,-48.0625
1771539425.4472783,26.998868380561984,1.9810289597671216,-8.265999763968827,-0.24174948231117516,-1.3619428747254632,9.93597891162432,-0.003280745004902142,0.0054491938191104814,0.031634092692397225,16.81178021364996,41.77549725674044,-49.25
1771539425.4829636,26.998868380561984,1.9810289597671216,-8.265999763968827,-0.24174948231117516,-1.3619428747254632,9.93597891162432,-0.003280745004902142,0.0054491938191104814,0.031634092692397225,16.81178021364996,41.77549725674044,-49.25
1771539425.5194104,27.08518802132343,1.987276761431596,-8.264565780026357,-0.2638355492738678,-1.3982456037937743,9.877111999872737,-0.0010792705629412936,-0.007637458009970326,0.017453292519943295,16.81178021364996,41.77549725674044,-49.25
1771539425.5390303,27.05687686955154,1.978409875924673,-8.266663762204946,-0.27865004692510603,-1.3454671833451353,9.801140498908035,1.6512813876254145e-05,-0.010908295326546715,0.0,17.99984652177323,41.40229530403608,-47.6875
1771539425.559402,27.05687686955154,1.978409875924673,-8.266663762204946,-0.27865004692510603,-1.3454671833451353,9.801140498908035,1.6512813876254145e-05,-0.010908295326546715,0.0,17.99984652177323,41.40229530403608,-47.6875
1771539425.5900788,27.093362954784734,1.9673867283192663,-8.269193554681994,-0.28504735494353417,-1.387276151451563,9.750582313673299,0.004378179663107315,-0.009810860668341543,0.05126904677733343,17.99984652177323,41.40229530403608,-47.6875
1771539425.6376572,27.110411980995444,1.941410038936089,-8.275676050743625,-0.2892591179999721,-1.4452055235609156,9.777148416903266,0.004364969412006312,-0.00108422440710417,0.014180800172453928,18.000319579044728,41.08979566208937,-46.875
1771539425.65911,27.151833814089116,1.9579866817931435,-8.271491237375574,-0.19839897877706608,-1.4836150879104286,9.794827861839991,0.006518556693726023,0.017463180210800497,0.037088246604879506,18.000319579044728,41.08979566208937,-46.875
1771539425.7143674,26.862244617607182,1.986488832598428,-8.27217458447314,-0.25506704822457554,-1.4725572693963218,9.80659333495304,0.006543325914540404,0.0011007372209804241,0.05126904677733343,16.501551246606443,40.27502591812476,-47.375
1771539425.7552655,26.86927051346938,1.9853446282337097,-8.265148688610946,-0.16901002405829033,-1.4650110550561235,9.831148684417427,0.005457450226048609,-0.002173402658371216,0.02181661564992912,16.501551246606443,40.27502591812476,-47.375
1771539425.79037,26.86927051346938,1.9853446282337097,-8.265148688610946,-0.16901002405829033,-1.4650110550561235,9.831148684417427,0.005457450226048609,-0.002173402658371216,0.02181661564992912,16.501551246606443,40.27502591812476,-47.375
1771539425.8236918,26.86927051346938,1.9853446282337097,-8.265148688610946,-0.16901002405829033,-1.4650110550561235,9.831148684417427,0.005457450226048609,-0.002173402658371216,0.02181661564992912,16.501551246606443,40.27502591812476,-47.375
1771539425.8711429,26.47114726413009,2.0148199265496403,-8.244077625389144,-0.24219924290454323,-1.4601866209007153,9.937808011282373,0.010923156859035344,-0.009800952980015789,0.050178215994836975,15.81509276032099,39.58648597984472,-46.5
1771539425.9276075,26.471154601824605,2.0184464801884645,-8.228898931639977,-0.22409484091222784,-1.3966627966374559,9.91847058575062,0.005469009195761986,-0.009809209386953916,0.014180800172453928,15.81509276032099,39.58648597984472,-46.5
1771539425.9466975,26.471154601824605,2.0184464801884645,-8.228898931639977,-0.22409484091222784,-1.3966627966374559,9.91847058575062,0.005469009195761986,-0.009809209386953916,0.014180800172453928,15.81509276032099,39.58648597984472,-46.5
1771539425.98132,26.401202367217316,1.9760115326872805,-8.224160372589605,-0.2040184421314279,-1.3329454790179416,9.852467705905921,-0.004374877100332065,0.007629201603032199,0.016362461737446838,16.50259197260374,39.58752670584201,-45.6875
1771539426.0106401,26.401202367217316,1.9760115326872805,-8.224160372589605,-0.2040184421314279,-1.3329454790179416,9.852467705905921,-0.004374877100332065,0.007629201603032199,0.016362461737446838,16.50259197260374,39.58752670584201,-45.6875
1771539426.025679,26.395557682742538,1.9603834894379752,-8.220753445665393,-0.1851941099758895,-1.3855573562355743,9.834916672177712,-0.007619293914706447,-0.010919854296260093,0.017453292519943295,16.50192969242364,40.025026204567396,-45.6875
1771539426.0536094,26.46577309931908,1.9754117139159508,-8.231378409878735,-0.20946291382842516,-1.4206256743262142,9.826581766996801,-0.009815814512504418,-0.0011056910651433003,0.04036073895236887,16.50192969242364,40.025026204567396,-45.6875
1771539426.118196,26.593545590091374,2.005439270794658,-8.195495534221573,-0.18885279149045076,-1.4204917916391493,9.727371852900953,0.004355061723680559,0.00546075278882386,0.03599741582238305,16.191322279562925,38.774554579509086,-45.375
1771539426.1801023,26.680568323264644,2.00685205154966,-8.173681307366992,-0.21193317192515862,-1.4204583957219579,9.67807432185412,-0.0021618436886578383,-0.01309325695463131,0.011999138607461015,16.191322279562925,38.774554579509086,-45.375
1771539426.227619,26.680568323264644,2.00685205154966,-8.173681307366992,-0.21193317192515862,-1.4204583957219579,9.67807432185412,-0.0021618436886578383,-0.01309325695463131,0.011999138607461015,16.191322279562925,38.774554579509086,-45.375
1771539426.349468,26.90420879781854,1.9990639509016987,-8.160854888790963,-0.08915705743480663,-1.5260505981264334,9.690336936890208,-0.007634155447195076,-0.0011023885023680494,0.038179077387375956,15.815660429046787,39.21148640950867,-45.375
1771539426.3822124,26.99686941047387,2.012475195278495,-8.157561382948343,-0.05526379819741275,-1.4939149882430642,9.720330233102477,-0.0021717513769835906,-0.0065482797587032805,0.03381575425739013,15.44293153361393,37.710920459438704,-44.1875
1771539426.4342835,27.055552850260796,1.9978494482609184,-8.168236131881208,-0.10295547815380761,-1.472635438100796,9.710184431318794,0.002203125723348474,-0.01417748136173548,0.04690572364734761,15.44293153361393,37.710920459438704,-44.1875
1771539426.4633121,27.055552850260796,1.9978494482609184,-8.168236131881208,-0.10295547815380761,-1.472635438100796,9.710184431318794,0.002203125723348474,-0.01417748136173548,0.04690572364734761,15.44293153361393,37.710920459438704,-44.1875
1771539426.5040402,27.12989305616918,1.9624680348499506,-8.147765364310185,-0.1647035175765553,-1.5220767587736692,9.703432513567785,3.302562775250829e-06,-0.0021816590653093433,0.019634954084936207,15.130904948938722,37.3979477602205,-43.5
1771539426.5387318,27.204691900198238,1.9354273158551636,-8.161730668987847,-0.20242065752220023,-1.575044988859125,9.715664746264949,-0.009799301698628164,-0.012013986391690015,0.037088246604879506,15.130904948938722,37.3979477602205,-43.5
1771539426.5807495,27.30710284941577,1.9069653084876015,-8.161240287740489,-0.2275513754727758,-1.590224107039563,9.72380516048192,0.002196520597797972,-0.009814163231116793,0.06763150851478027,15.818971829947268,37.02398891588175,-43.0
1771539426.6170344,27.385956691382237,1.921092470661464,-8.165220684525254,-0.24442750076441347,-1.499972404389117,9.709151844965012,-0.007620945196094073,-0.009829024763605422,0.0272707695624114,15.818971829947268,37.02398891588175,-43.0
1771539426.6568685,27.446024404285218,1.8931609710037944,-8.150501051856622,-0.18215208454666182,-1.382932667553846,9.69940022717677,-0.0010627577490650395,-0.018545753336517045,0.037088246604879506,15.44463453979132,36.58592174843057,-43.75
1771539426.734191,27.540276133379045,1.884567592123123,-8.14539227143205,-0.2511021143512977,-1.3018660267813582,9.763157980325111,-0.013073441577979805,-0.01092811070319822,0.011999138607461015,15.44463453979132,36.58592174843057,-43.75
1771539426.7715564,27.668710863409476,1.8953315896453027,-8.149854256835761,-0.19328924485172666,-1.2477601059228027,9.805588052824563,0.0010792705629412936,0.007637458009970326,0.06217735460229799,14.007136186836483,36.58374568498168,-43.0
1771539426.8456736,27.293759232209094,1.9009034058652716,-8.170119306512404,-0.1949415291844925,-1.221849308907556,9.813754121854064,-0.019631629025008836,-0.0022113821302866005,0.031634092692397225,14.007136186836483,36.58374568498168,-43.0
1771539426.8978696,27.293759232209094,1.9009034058652716,-8.170119306512404,-0.1949415291844925,-1.221849308907556,9.813754121854064,-0.019631629025008836,-0.0022113821302866005,0.031634092692397225,14.007136186836483,36.58374568498168,-43.0
1771539426.9771698,27.546864305731084,1.8984339381516164,-8.19987388563874,-0.1959246391456229,-1.2815434440520221,9.81918854957223,0.004388087351433068,-0.01635583786426957,0.025089107997418487,14.009879919011167,34.7712477616908,-40.5625
1771539427.0066698,27.606250229688637,1.875452790544054,-8.205548091000551,-0.1965029312306757,-1.371445842282316,9.712416414170594,0.003262580909638262,0.0065499310400909064,0.013089969389957472,14.009879919011167,34.7712477616908,-40.5625
1771539427.0341716,27.606250229688637,1.875452790544054,-8.205548091000551,-0.19354267027874353,-1.4312698202548504,9.718298320052055,-0.004371574537556814,0.005447542537722856,0.05235987755982989,13.197948518675533,34.39501824244886,-41.375
1771539427.0786445,27.758683774622664,1.847283847672488,-8.161735902577469,-0.19166886139207504,-1.4075249597007613,9.722212662710973,0.0021866129094722194,-0.003269186035188764,0.04363323129985824,13.197948518675533,34.39501824244886,-41.375
1771539427.1266596,27.758683774622664,1.847283847672488,-8.161735902577469,-0.19166886139207504,-1.4075249597007613,9.722212662710973,0.0021866129094722194,-0.003269186035188764,0.04363323129985824,13.197948518675533,34.39501824244886,-41.375
1771539427.2202632,27.948154503934415,1.8387530050636172,-8.157214519246832,-0.16035133805745722,-1.368261691160152,9.751578507682964,-0.0011007372209804241,0.006543325914540404,0.07526732399225546,13.200692250850217,32.582520319157986,-41.0
1771539427.2432988,28.07657724548504,1.8495476696711846,-8.161689101207942,-0.17292550844487278,-1.3655988174092946,9.771121149473844,-0.002176705221146467,-0.0032757911607392658,0.018544123302439753,13.200692250850217,32.582520319157986,-41.0
1771539427.3108199,28.15612546144111,1.851846398288277,-8.175755859960756,-0.14777150679123519,-1.4106075771772448,9.784126559280061,-0.010914900452097217,0.004346805316742432,0.030543261909900768,12.952300932015945,31.519643090721996,-40.5625
1771539427.3482988,28.15612546144111,1.851846398288277,-8.175755859960756,-0.14777150679123519,-1.4106075771772448,9.784126559280061,-0.010914900452097217,0.004346805316742432,0.030543261909900768,12.952300932015945,31.519643090721996,-40.5625
1771539427.38654,28.23499174922822,1.8660120986932531,-8.179669495859832,-0.2313850359170162,-1.4407123172460685,9.776055955689554,0.0032675347538011386,0.0032774424421268913,0.02181661564992912,12.952300932015945,31.519643090721996,-40.5625
1771539427.409018,29.400283694016366,1.9806442645075486,-8.086920465459894,-0.287033969300038,-1.4574015775953006,9.770685059154621,-0.08938197042217805,-0.04376858637997214,0.4625122517784973,13.644341494105067,28.520687254030936,-39.75
1771539427.429417,29.803019837836416,2.036198794019604,-8.18167127054478,-0.3376304401943291,-1.3481044655377994,9.583129643604902,-0.17339565981323926,-0.030805780654963245,0.3817907738737596,13.644341494105067,28.520687254030936,-39.75
1771539427.4997633,31.02219071114485,2.1622125900738673,-8.09047285118121,-0.45158441536500016,-1.2754899889715074,9.347924923346296,0.01750611352687876,-0.034880124542747484,0.3239767424014474,13.331274183432566,28.89521376709548,-39.75
1771539427.5278265,31.320820552608172,2.1658159734822453,-8.126208752121553,-0.5274195128917718,-1.2271658659734928,9.191398809423074,0.009924799084087695,-0.07088905809006503,0.1538071403320003,13.331274183432566,28.89521376709548,-39.75
1771539427.5643148,31.518449575503475,2.150798640279954,-8.174305914474136,-0.4340169019101608,-1.214859606893876,9.237762455947802,-0.029447443537513256,-0.0033170731954299012,0.136353847812057,13.331274183432566,28.89521376709548,-39.75
1771539427.6175034,31.518449575503475,2.150798640279954,-8.174305914474136,-0.4340169019101608,-1.214859606893876,9.237762455947802,-0.029447443537513256,-0.0033170731954299012,0.136353847812057,13.331274183432566,28.89521376709548,-39.75
1771539427.681685,31.897078052999948,2.174993974651698,-8.131820682508781,-0.3719344642894499,-1.1564933108274789,9.59643789211144,0.024026321501992406,-0.01850777386460166,0.07963064712224129,12.207505421330326,28.081011691856663,-40.5625
1771539427.7099056,32.004899222961335,2.1864705531134536,-8.14305343026048,-0.34709164622534117,-1.2849319053896584,9.677912137967182,0.018552358462067545,-0.005426075879683726,0.02181661564992912,12.207505421330326,28.081011691856663,-40.5625
1771539427.7254026,32.004899222961335,2.1864705531134536,-8.14305343026048,-0.34709164622534117,-1.2849319053896584,9.677912137967182,0.018552358462067545,-0.005426075879683726,0.02181661564992912,12.207505421330326,28.081011691856663,-40.5625
1771539427.7401657,32.02739192129222,2.18134871823683,-8.144611584422936,-0.3306906864436422,-1.283433550578367,9.732132338457216,0.002173402658371216,0.005457450226048609,0.018544123302439753,13.020477547663253,27.769741998815853,-39.75
1771539427.7763512,32.02111976183568,2.1741990318277864,-8.146787157270248,-0.29629951050790715,-1.3225422602652956,9.744799494252772,-1.6512813876254145e-06,0.0010908295326546716,-0.004363323129985824,13.020477547663253,27.769741998815853,-39.75
1771539427.7989268,32.035166164122224,2.1635752134774564,-8.156795698071388,-0.2734125670972829,-1.3485686696890347,9.753229344933315,-6.605125550501658e-06,0.004363318130618687,0.01090830782496456,12.20854614732762,27.393512479573914,-41.0
1771539427.8609617,32.035166164122224,2.1635752134774564,-8.156795698071388,-0.2734125670972829,-1.3485686696890347,9.753229344933315,-6.605125550501658e-06,0.004363318130618687,0.01090830782496456,12.20854614732762,27.393512479573914,-41.0
1771539427.926163,31.673451020208326,2.12916616304346,-8.158879100115934,-0.2581764981472874,-1.3692340623010786,9.765529539808252,-0.002183310346696969,0.0010875269698794208,-0.011999138607461015,13.33411252706155,27.02021591541526,-41.75
1771539427.9662678,31.28828328676342,2.110327403198364,-8.170783901367585,-0.25130106826934373,-1.3921539994181928,9.802578417549022,-0.0010891782512670461,-0.001092480814042297,0.00545415391248228,12.207505421330326,28.081011691856663,-41.75
1771539428.0116553,31.224721541391684,2.0972182216294653,-8.167349462949602,-0.2501568222022326,-1.3949046320294793,9.774955014417507,-0.006543325914540404,-0.0011007372209804241,0.006544984694978736,12.207505421330326,28.081011691856663,-41.75
1771539428.0485575,30.82336109171104,2.090612253158902,-8.175451656251413,-0.2493700203559624,-1.4134606866786554,9.73984638967052,-0.0032675347538011386,-0.0032774424421268913,0.004363323129985824,11.521046935044874,27.392471753576622,-39.75
1771539428.1003554,30.548662885387373,2.0778006604973758,-8.178797544815389,-0.2488464125164221,-1.42580953376297,9.716481992090435,-0.0021816590653093433,-3.302562775250829e-06,0.006544984694978736,11.521046935044874,27.392471753576622,-39.75
1771539428.126392,30.54911123109305,2.0710680945074196,-8.180622501875392,-0.25184306522287975,-1.4340326173260554,9.737729475278824,-0.0010875269698794208,-0.0021833103466969684,0.006544984694978736,13.018774541485863,28.894740709823985,-40.5625
1771539428.175085,30.52078697414403,2.062289568554773,-8.183008301164653,-0.25047700492722996,-1.4495352474290584,9.781975443356632,0.0032675347538011386,0.0032774424421268913,0.0,13.018774541485863,28.894740709823985,-40.5625
1771539428.217575,30.375104222600697,2.051804180464124,-8.185347516343699,-0.2529130149349573,-1.4598571383610166,9.781314635486691,0.0021701000955959655,0.007639109291357952,-0.007635815477475192,13.020004490391756,28.082241640762554,-41.0
1771539428.2480881,30.375104222600697,2.051804180464124,-8.185347516343699,-0.2529130149349573,-1.4598571383610166,9.781314635486691,0.0021701000955959655,0.007639109291357952,-0.007635815477475192,13.020004490391756,28.082241640762554,-41.0
1771539428.2938125,30.29597622200183,2.039373720821836,-8.188567673114786,-0.25787419648353915,-1.4700764131218818,9.79425532206023,0.0010891782512670461,0.001092480814042297,0.004363323129985824,13.020004490391756,28.082241640762554,-41.0
1771539428.3257928,30.02687253782676,2.0422398941997777,-8.194639398225423,-0.27455623888244685,-1.4768974814149975,9.80286720441798,-0.0010858756884917953,-0.0032741398793516402,0.0272707695624114,12.20684314115023,28.518511190582046,-41.0
1771539428.3766818,29.66449477158353,2.043436096017753,-8.194071149709734,-0.2856630155224309,-1.4780917182931517,9.808598315926032,-0.005440937412172354,-0.0087348926681755,0.05126904677733343,12.20684314115023,28.518511190582046,-41.0
1771539428.4095562,29.78902638969251,2.0388564609077093,-8.195664718688679,-0.2897144072050616,-1.4755362979463398,9.80906719490661,-0.007617642633318822,-0.012010683828914764,0.07635815477475191,12.207978478601824,27.76851204990996,-41.0
1771539428.5088632,29.8607723813156,2.035337045402904,-8.189119541958545,-0.2824106859080186,-1.4504047478069253,9.809379228630466,-0.0021667975328207145,-0.009820768356667295,0.06435901616729091,13.020004490391756,28.082241640762554,-41.5
1771539428.5650716,29.83314757731734,2.01801673095957,-8.186478676497225,-0.2675350724455216,-1.4202843591061949,9.796206436758768,-0.004364969412006312,0.00108422440710417,0.008726646259971648,13.020004490391756,28.082241640762554,-41.5
1771539428.5973904,29.83314757731734,2.01801673095957,-8.186478676497225,-0.2675350724455216,-1.4202843591061949,9.796206436758768,-0.004364969412006312,0.00108422440710417,0.008726646259971648,13.020004490391756,28.082241640762554,-41.5
1771539428.6224208,29.68972409340511,2.0010147686077513,-8.190924756904938,-0.2576152627611812,-1.4136200083910027,9.814200984576434,0.001095783376817548,-0.0032708373165763896,0.007635815477475192,12.645004920055712,28.081673972036757,-41.0
1771539428.645645,29.68972409340511,2.0010147686077513,-8.190924756904938,-0.2576152627611812,-1.4136200083910027,9.814200984576434,0.001095783376817548,-0.0032708373165763896,0.007635815477475192,12.645004920055712,28.081673972036757,-41.0
1771539428.6838322,29.740525130899286,2.0046673982248175,-8.190108561353417,-0.2710691961529166,-1.4192506637042928,9.799415261478266,1.6512813876254145e-06,-0.0010908295326546716,0.025089107997418487,12.645004920055712,28.081673972036757,-41.0
1771539428.7202523,29.450096275487844,1.9973900058911107,-8.19140172139831,-0.2800226385348331,-1.4229978019167462,9.81633642158234,-0.0032724885979640147,-4.953844162876244e-06,-0.02945243112740431,13.020004490391756,28.082241640762554,-42.25
1771539428.7963192,29.450096275487844,1.9973900058911107,-8.19140172139831,-0.2800226385348331,-1.4229978019167462,9.81633642158234,-0.0032724885979640147,-4.953844162876244e-06,-0.02945243112740431,13.020004490391756,28.082241640762554,-42.25
1771539428.8410745,29.328237607392953,1.9887207232058859,-8.193736227173885,-0.2391900543723273,-1.3986597247042594,9.784110812414706,-0.0010875269698794208,-0.0021833103466969684,0.001090830782496456,13.020004490391756,28.082241640762554,-42.25
1771539428.9217024,29.276987821479704,1.9918161324451589,-8.19278178671562,-0.21201642574203167,-1.382463006193486,9.786080811448523,-0.002176705221146467,-0.0032757911607392658,-0.014180800172453928,14.145003201399888,28.083944646939944,-41.0
1771539428.9446359,29.04412965476567,1.98863948901831,-8.192984151809206,-0.20062289518706897,-1.3716943985020362,9.787391823799197,0.0010924808140422972,-0.0010891782512670461,-0.004363323129985824,14.145003201399888,28.083944646939944,-41.0
1771539428.972029,29.04412965476567,1.98863948901831,-8.192984151809206,-0.22314659874811713,-1.3645735843438196,9.788264287873604,0.0,0.0,-0.006544984694978736,14.145003201399888,28.083944646939944,-41.0
1771539428.994184,29.04412965476567,1.98863948901831,-8.192984151809206,-0.22314659874811713,-1.3645735843438196,9.788264287873604,0.0,0.0,-0.006544984694978736,14.145003201399888,28.083944646939944,-41.0
1771539429.077616,29.02384945327435,1.987279050011891,-8.193710713300048,-0.2380751065721226,-1.3999760565612993,9.798880238091016,-0.0043616668492310615,-0.0010974346582051733,0.002181661564992912,13.020477547663253,27.769741998815853,-40.25
1771539429.170438,28.935334057477245,1.987625426819882,-8.193065725025358,-0.24804530818558254,-1.4001202512283826,9.795909699250812,-0.002176705221146467,-0.0032757911607392658,0.003272492347489368,13.01934221021166,28.51974113948794,-41.5
1771539429.2344656,28.89934256982108,1.9918731623619956,-8.192091806463894,-0.2613705817340683,-1.400226338716836,9.800623062250388,-0.003270837316576389,-0.0010957833768175478,-0.00545415391248228,13.01934221021166,28.51974113948794,-41.5
1771539429.2765872,28.89934256982108,1.9918731623619956,-8.192091806463894,-0.2613705817340683,-1.400226338716836,9.800623062250388,-0.003270837316576389,-0.0010957833768175478,-0.00545415391248228,13.01934221021166,28.51974113948794,-41.5
1771539429.3269606,28.805796137137726,1.9920088043478408,-8.192146425553641,-0.27023840242752684,-1.400296938755327,9.80375975267489,0.0,0.0,0.001090830782496456,12.644342639875616,28.519173470762144,-41.375
1771539429.3584654,28.761770778460356,1.9888029683917998,-8.19268600379754,-0.2561046372103857,-1.3768977845253576,9.815882520235228,0.0032724885979640147,4.953844162876244e-06,-0.013089969389957472,12.644342639875616,28.519173470762144,-41.375
1771539429.401543,28.761770778460356,1.9888029683917998,-8.19268600379754,-0.2561046372103857,-1.3768977845253576,9.815882520235228,0.0032724885979640147,4.953844162876244e-06,-0.013089969389957472,12.644342639875616,28.519173470762144,-41.375
1771539429.4495604,28.501874305862287,1.9838075206115438,-8.193827670300935,-0.2466430728273981,-1.3981220953914706,9.823950086626445,0.0054524963818857325,0.0010990859395927986,-0.011999138607461015,13.02104521638905,27.39474242847981,-41.75
1771539429.510432,28.501874305862287,1.9838075206115438,-8.193827670300935,-0.2403465074231194,-1.4122466371817812,9.81928362681722,-0.0010891782512670461,-0.001092480814042297,0.004363323129985824,13.02104521638905,27.39474242847981,-41.75
1771539429.5832775,28.364066848945612,1.9824287055880934,-8.201171425166471,-0.23280097806095768,-1.4283315139368062,9.816178149941955,-0.0021750539397588416,-0.004366620693393937,0.009817477042468103,13.332504132338459,28.082714698034053,-41.0
1771539429.6576655,28.364066848945612,1.9824287055880934,-8.201171425166471,-0.23280097806095768,-1.4283315139368062,9.816178149941955,-0.0021750539397588416,-0.004366620693393937,0.009817477042468103,13.332504132338459,28.082714698034053,-41.0
1771539429.7675962,28.370836652706593,1.9828841065283975,-8.20093208805706,-0.2244681660065751,-1.426088768425279,9.818307396696053,-0.0010924808140422972,0.0010891782512670461,0.006544984694978736,13.332504132338459,28.082714698034053,-41.0
1771539429.8506267,28.370836652706593,1.9828841065283975,-8.20093208805706,-0.2222645018657517,-1.4174726504050827,9.818873591408842,-0.0010924808140422972,0.0010891782512670461,-0.006544984694978736,13.332504132338459,28.082714698034053,-41.0
1771539429.897807,28.370836652706593,1.9828841065283975,-8.20093208805706,-0.2222645018657517,-1.4174726504050827,9.818873591408842,-0.0010924808140422972,0.0010891782512670461,-0.006544984694978736,13.332504132338459,28.082714698034053,-41.0
1771539429.9271417,28.370836652706593,1.9828841065283975,-8.20093208805706,-0.2208030517707099,-1.408393612236398,9.812560164250755,-0.00108422440710417,-0.004364969412006312,-0.007635815477475192,13.332504132338459,28.082714698034053,-41.75
1771539429.9596531,28.370836652706593,1.9828841065283975,-8.20093208805706,-0.2164499187643945,-1.4257623051026276,9.815048872417288,-0.0032642321910258875,-0.005459101507436234,-0.006544984694978736,13.332504132338459,28.082714698034053,-41.75
1771539430.0243773,28.38607329687617,1.9840341140902162,-8.200908866249657,-0.21354789360223872,-1.4406660840586802,9.810014856486786,1.6512813876254145e-06,-0.0010908295326546716,0.011999138607461015,13.020477547663253,27.769741998815853,-41.0
1771539430.1096592,28.379303516845,1.983578750263762,-8.20114833863621,-0.2115963731780301,-1.4639648139661692,9.830080557069914,0.0010891782512670461,0.001092480814042297,0.0,13.020477547663253,27.769741998815853,-41.0
1771539430.2117271,28.38607329687617,1.9840341140902162,-8.200908866249657,-0.19691722663727518,-1.4794496033591977,9.823363386415508,0.00108422440710417,0.004364969412006312,0.002181661564992912,13.01934221021166,28.51974113948794,-41.0
1771539430.311366,28.39284287821934,1.9844894360188132,-8.200669347127103,-0.21188913581989238,-1.4465184099508734,9.824822852757485,-0.0021783565025340922,-0.002184961628084594,0.004363323129985824,11.52000620904758,28.07997096585937,-41.0
1771539430.372236,28.39284287821934,1.9844894360188132,-8.200669347127103,-0.2339386261703482,-1.44782427064407,9.799793772684076,-0.0010875269698794208,-0.0021833103466969684,-0.004363323129985824,11.52000620904758,28.07997096585937,-41.0
