timestamp,yaw,pitch,roll,ax,ay,az,gx,gy,gz,mx,my,mz
1762289051.941514,-0.16307315455963103,3.0244952538078533,-6.171411321831858,-0.47000000000000003,-1.05,9.3,0.0,-0.003272492347489368,0.001090830782496456,-44.875,-30.875,-86.5625
1762289052.648778,-0.1632495054024866,3.0173191325565387,-6.192091938524379,-0.48,-1.01,9.290000000000001,-0.001090830782496456,0.0,0.0,-44.5,-31.25,-85.75
1762289053.0155675,-0.1632495054024866,3.0173191325565387,-6.192091938524379,-0.45,-1.03,9.290000000000001,-0.001090830782496456,-0.001090830782496456,0.003272492347489368,-45.25,-30.875,-85.5
1762289053.2735515,-0.1632495054024866,3.0173191325565387,-6.192091938524379,-0.49,-1.07,9.31,-0.001090830782496456,-0.001090830782496456,0.0,-45.25,-30.875,-85.5
1762289053.4977367,-0.1632495054024866,3.0173191325565387,-6.192091938524379,-0.44,-1.05,9.13,0.0,0.002181661564992912,-0.001090830782496456,-44.0625,-32.0625,-85.875
1762289053.7574513,-0.16247947906478868,2.99634633759127,-6.206036226605789,-0.71,-1.01,9.08,-0.004363323129985824,0.008726646259971648,-0.00545415391248228,-44.0625,-31.25,-86.25
1762289053.9667587,-0.1617199373855685,2.9823646976973683,-6.205957113684587,-0.34,-1.11,9.27,0.001090830782496456,-0.00545415391248228,0.001090830782496456,-44.0625,-30.875,-86.5625
1762289054.1695604,-0.15906176861250576,2.9336098800925745,-6.206059643986469,-0.39,-1.02,9.26,-0.003272492347489368,-0.018544123302439753,0.0,-45.25,-30.875,-84.6875
1762289054.3854837,-0.16453366564019697,2.905267938092093,-6.206081896570278,-0.37,-1.04,9.46,0.002181661564992912,-0.02945243112740431,0.015271630954950384,-26.5625,-18.875,-51.25
1762289054.6045258,-0.16663177980505903,2.9472134634119413,-6.199284943209305,-0.73,-1.0,9.370000000000001,0.001090830782496456,0.008726646259971648,-0.01090830782496456,-26.75,-18.5625,-52.25
1762289054.9692423,-0.16077875470502598,2.9685649062262596,-6.199222902720714,-0.59,-1.1,9.36,0.001090830782496456,0.006544984694978736,-0.003272492347489368,-27.1875,-18.25,-52.875
1762289055.2126186,-0.16115807884970926,2.9755560437435307,-6.1992621848476555,-0.39,-1.1300000000000001,9.39,0.001090830782496456,-0.007635815477475192,-0.003272492347489368,-26.75,-19.375,-52.0625
1762289055.4609237,-0.16115807884970926,2.9755560437435307,-6.1992621848476555,-0.43,-1.03,9.24,-0.001090830782496456,-0.003272492347489368,-0.001090830782496456,-26.375,-19.375,-50.875
1762289055.7411838,-0.16852858473187854,2.9821689183855256,-6.199483020199267,-0.13,-0.68,8.6,-0.008726646259971648,-0.009817477042468103,-0.011999138607461015,-27.5625,-18.5625,-52.0625
1762289056.13047,-0.17418293470040616,2.9538253137311674,-6.206536015749212,-0.62,-1.08,9.27,-0.001090830782496456,0.003272492347489368,0.0,-27.1875,-19.0,-51.5625
1762289056.5645497,-0.17418293470040616,2.9538253137311674,-6.206536015749212,-0.49,-1.06,9.32,0.0,-0.001090830782496456,-0.002181661564992912,-27.1875,-19.0,-52.0
1762289057.1554458,-0.17418293470040616,2.9538253137311674,-6.206536015749212,-0.52,-1.08,9.28,-0.002181661564992912,0.001090830782496456,0.0,-27.1875,-19.375,-51.5625
1762289057.396797,-0.17418293470040616,2.9538253137311674,-6.206536015749212,-0.47000000000000003,-1.07,9.27,0.001090830782496456,0.002181661564992912,-0.002181661564992912,-27.1875,-19.0,-52.0
1762289057.6291215,-0.17418293470040616,2.9538253137311674,-6.206536015749212,-0.46,-1.07,9.27,0.002181661564992912,-0.001090830782496456,0.002181661564992912,-26.75,-18.5625,-53.1875
1762289057.8652184,-0.17418293470040616,2.9538253137311674,-6.206536015749212,-0.44,-1.09,9.27,-0.001090830782496456,0.001090830782496456,0.002181661564992912,-27.1875,-19.375,-51.1875
1762289058.1762443,-0.17418293470040616,2.9538253137311674,-6.206536015749212,-0.45,-1.04,9.27,0.002181661564992912,-0.001090830782496456,0.001090830782496456,-26.375,-19.75,-52.375
1762289058.4428658,-0.17418293470040616,2.9538253137311674,-6.206536015749212,-0.52,-0.98,9.290000000000001,0.002181661564992912,0.0,0.001090830782496456,-26.75,-18.25,-52.0
1762289058.6906962,-0.17418293470040616,2.9538253137311674,-6.206536015749212,-0.46,-1.03,9.27,0.0,0.0,0.001090830782496456,-26.375,-19.375,-52.0
1762289058.9951792,-0.17418293470040616,2.9538253137311674,-6.206536015749212,-0.48,-1.04,9.28,0.002181661564992912,-0.003272492347489368,0.0,-27.5625,-18.5625,-51.1875
1762289059.3063314,-0.17418293470040616,2.9538253137311674,-6.206536015749212,-0.48,-1.04,9.26,0.001090830782496456,0.002181661564992912,-0.001090830782496456,-26.75,-20.0625,-52.375
1762289059.5649953,-0.17418293470040616,2.9538253137311674,-6.206536015749212,-0.48,-0.99,9.28,-0.001090830782496456,-0.003272492347489368,0.0,-28.1875,-19.375,-52.375
1762289059.9234562,-0.17418293470040616,2.9538253137311674,-6.206536015749212,-0.46,-1.05,9.31,0.0,0.0,0.001090830782496456,-26.375,-19.75,-50.75
1762289060.2124474,-0.17418293470040616,2.9538253137311674,-6.206536015749212,-0.46,-0.98,9.3,0.0,-0.002181661564992912,0.001090830782496456,-27.5625,-18.5625,-52.75
1762289060.4914908,-0.17418293470040616,2.9538253137311674,-6.206536015749212,-0.5,-1.06,9.3,-0.001090830782496456,0.0,0.001090830782496456,-26.75,-19.375,-51.1875
1762289060.7351494,-0.17418293470040616,2.9538253137311674,-6.206536015749212,-0.49,-1.02,9.26,0.0,0.004363323129985824,0.001090830782496456,-26.75,-18.5625,-52.0
1762289061.0795019,-0.17418293470040616,2.9538253137311674,-6.206536015749212,-0.47000000000000003,-1.07,9.28,-0.001090830782496456,0.003272492347489368,-0.002181661564992912,-26.75,-18.5625,-52.75
1762289061.3397915,-0.17418293470040616,2.9538253137311674,-6.206536015749212,-0.47000000000000003,-1.09,9.3,0.001090830782496456,-0.002181661564992912,0.002181661564992912,-26.75,-19.0,-52.75
1762289061.7670598,-0.17418293470040616,2.9538253137311674,-6.206536015749212,-0.48,-1.05,9.25,0.001090830782496456,-0.001090830782496456,0.001090830782496456,-27.1875,-18.5625,-52.375
1762289062.12769,-0.17418293470040616,2.9538253137311674,-6.206536015749212,-0.49,-1.03,9.25,-0.001090830782496456,-0.003272492347489368,0.0,-26.75,-19.0,-52.375
1762289062.3844204,-0.17418293470040616,2.9538253137311674,-6.206536015749212,-0.48,-1.04,9.27,-0.002181661564992912,0.001090830782496456,-0.001090830782496456,-27.1875,-20.0625,-52.0
1762289062.663029,-0.17418293470040616,2.9538253137311674,-6.206536015749212,-0.47000000000000003,-1.06,9.24,0.001090830782496456,-0.001090830782496456,-0.001090830782496456,-26.75,-19.0,-51.5625
1762289062.88591,-0.17418293470040616,2.9538253137311674,-6.206536015749212,-0.45,-1.07,9.290000000000001,0.0,0.0,0.001090830782496456,-26.75,-18.25,-52.0
1762289063.171951,-0.17418293470040616,2.9538253137311674,-6.206536015749212,-0.48,-1.06,9.31,0.001090830782496456,0.001090830782496456,-0.002181661564992912,-26.75,-18.5625,-52.375
1762289063.4031503,-0.17418293470040616,2.9538253137311674,-6.206536015749212,-0.42,-1.04,9.27,0.0,0.002181661564992912,0.003272492347489368,-27.5625,-19.375,-51.5625
1762289063.6781948,-0.17418293470040616,2.9538253137311674,-6.206536015749212,-0.46,-1.06,9.28,0.0,0.003272492347489368,0.001090830782496456,-26.75,-19.375,-51.5625
1762289063.9165692,-0.17418293470040616,2.9538253137311674,-6.206536015749212,-0.47000000000000003,-1.0,9.34,0.0,-0.003272492347489368,-0.002181661564992912,-26.75,-18.5625,-52.0
1762289064.1309361,-0.17418293470040616,2.9538253137311674,-6.206536015749212,-0.66,-1.0,9.28,0.001090830782496456,0.006544984694978736,-0.002181661564992912,-27.5625,-19.75,-50.5
1762289064.389459,-0.1745627608858871,2.96081635810468,-6.206576008559832,-0.48,-1.02,9.27,-0.001090830782496456,0.002181661564992912,0.0,-26.75,-18.25,-52.0
1762289064.610574,-0.1745627608858871,2.96081635810468,-6.206576008559832,-0.44,-1.02,9.3,-0.001090830782496456,-0.002181661564992912,-0.001090830782496456,-27.5625,-18.25,-53.0625
1762289064.8794732,-0.1745627608858871,2.96081635810468,-6.206576008559832,-0.46,-1.02,9.26,0.0,0.0,-0.002181661564992912,-26.375,-19.375,-51.5625
1762289065.104056,-0.1745627608858871,2.96081635810468,-6.206576008559832,-0.51,-1.04,9.290000000000001,0.0,0.001090830782496456,0.001090830782496456,-27.1875,-18.5625,-52.75
1762289065.3786736,-0.1745627608858871,2.96081635810468,-6.206576008559832,-0.48,-1.02,9.26,-0.001090830782496456,-0.003272492347489368,-0.001090830782496456,-26.375,-18.5625,-52.0
1762289065.6186066,-0.1745627608858871,2.96081635810468,-6.206576008559832,-0.45,-1.07,9.290000000000001,-0.001090830782496456,-0.001090830782496456,0.001090830782496456,-26.75,-18.5625,-51.1875
1762289065.8852088,-0.1745627608858871,2.96081635810468,-6.206576008559832,-0.45,-1.04,9.27,0.0,0.0,-0.001090830782496456,-27.1875,-19.375,-52.0
1762289066.1114755,-0.1745627608858871,2.96081635810468,-6.206576008559832,-0.49,-1.03,9.28,0.001090830782496456,0.0,0.002181661564992912,-26.75,-19.0,-53.1875
1762289066.3323529,-0.1745627608858871,2.96081635810468,-6.206576008559832,-0.5,-1.08,9.31,0.0,-0.002181661564992912,-0.001090830782496456,-26.375,-19.375,-51.1875
1762289066.5948534,-0.1745627608858871,2.96081635810468,-6.206576008559832,-0.48,-1.04,9.3,0.0,-0.001090830782496456,0.0,-27.1875,-19.0,-50.75
1762289066.8494804,-0.07053778178767402,1.1726349510701652,-6.199291419237792,-0.48,-1.02,9.3,0.0,0.003272492347489368,0.0,-27.1875,-19.0,-50.5
1762289067.1436787,-0.1745627608858871,2.96081635810468,-6.206576008559832,-0.51,-1.02,9.290000000000001,0.001090830782496456,0.0,0.0,-26.75,-18.5625,-51.5625
1762289067.3867855,-0.1745627608858871,2.96081635810468,-6.206576008559832,-0.45,-1.04,9.24,0.002181661564992912,-0.001090830782496456,0.001090830782496456,-26.375,-19.375,-51.1875
1762289067.6697526,-0.1745627608858871,2.96081635810468,-6.206576008559832,-0.48,-1.07,9.290000000000001,0.0,0.002181661564992912,0.0,-27.5625,-19.75,-52.0
1762289067.9034634,-0.1745627608858871,2.96081635810468,-6.206576008559832,-0.52,-1.04,9.3,0.001090830782496456,0.002181661564992912,-0.001090830782496456,-26.75,-19.375,-51.5625
1762289068.195488,-0.1745627608858871,2.96081635810468,-6.206576008559832,-0.45,-1.03,9.290000000000001,0.001090830782496456,0.0,-0.001090830782496456,-25.6875,-19.0,-51.5625
1762289068.444313,-0.1745627608858871,2.96081635810468,-6.206576008559832,-0.47000000000000003,-1.03,9.23,0.0,-0.001090830782496456,0.001090830782496456,-27.5625,-19.0,-51.1875
1762289068.7329283,-0.1745627608858871,2.96081635810468,-6.206576008559832,-0.48,-1.0,9.290000000000001,-0.001090830782496456,0.0,0.002181661564992912,-26.75,-18.5625,-51.5625
1762289068.9951856,-0.1745627608858871,2.96081635810468,-6.206576008559832,-0.56,-1.0,9.27,-0.001090830782496456,0.001090830782496456,-0.002181661564992912,-27.1875,-19.375,-52.0
1762289069.2997227,-0.1745627608858871,2.96081635810468,-6.206576008559832,-0.46,-1.07,9.290000000000001,0.001090830782496456,0.001090830782496456,-0.001090830782496456,-26.375,-19.0,-52.0
1762289069.5668106,-0.1745627608858871,2.96081635810468,-6.206576008559832,-0.46,-1.05,9.28,0.0,0.001090830782496456,0.0,-26.75,-19.0,-51.5625
1762289069.8748026,-0.1745627608858871,2.96081635810468,-6.206576008559832,-0.46,-1.03,9.34,0.0,-0.003272492347489368,0.002181661564992912,-26.0625,-19.75,-52.75
1762289070.149237,-0.1745627608858871,2.96081635810468,-6.206576008559832,-0.48,-1.06,9.290000000000001,0.0,0.003272492347489368,-0.002181661564992912,-26.375,-19.375,-51.1875
1762289070.4370012,-0.1745627608858871,2.96081635810468,-6.206576008559832,-0.46,-1.09,9.27,0.001090830782496456,-0.001090830782496456,0.001090830782496456,-26.75,-19.0,-51.5625
1762289070.6722956,-0.1745627608858871,2.96081635810468,-6.206576008559832,-0.46,-1.07,9.290000000000001,-0.001090830782496456,-0.002181661564992912,-0.001090830782496456,-27.1875,-19.0,-52.75
1762289070.9312289,-0.1745627608858871,2.96081635810468,-6.206576008559832,-0.48,-1.05,9.3,-0.001090830782496456,0.002181661564992912,-0.001090830782496456,-26.375,-18.25,-51.5625
1762289071.1728787,-0.1745627608858871,2.96081635810468,-6.206576008559832,-0.49,-1.1,9.290000000000001,0.0,-0.001090830782496456,-0.001090830782496456,-26.75,-19.375,-52.0
1762289071.408304,-0.1745627608858871,2.96081635810468,-6.206576008559832,-0.43,-1.05,9.27,0.0,-0.004363323129985824,0.001090830782496456,-27.5625,-19.375,-51.1875
1762289071.6597261,-0.1745627608858871,2.96081635810468,-6.206576008559832,-0.45,-1.03,9.28,-0.001090830782496456,0.0,0.0,-26.0625,-19.75,-52.375
1762289071.9077463,-0.1745627608858871,2.96081635810468,-6.206576008559832,-0.5,-1.02,9.28,0.0,0.0,-0.002181661564992912,-27.5625,-19.0,-52.0
1762289072.181565,-0.1745627608858871,2.96081635810468,-6.206576008559832,-0.44,-1.0,9.290000000000001,0.0,-0.003272492347489368,-0.001090830782496456,-26.375,-18.5625,-52.375
1762289072.4297557,-0.1745627608858871,2.96081635810468,-6.206576008559832,-0.44,-1.03,9.26,-0.001090830782496456,0.001090830782496456,0.001090830782496456,-26.375,-19.0,-51.5625
1762289072.7184517,-0.1745627608858871,2.96081635810468,-6.206576008559832,-0.47000000000000003,-1.01,9.26,-0.001090830782496456,-0.002181661564992912,-0.001090830782496456,-26.375,-19.0,-51.1875
1762289072.9699051,-0.1745627608858871,2.96081635810468,-6.206576008559832,-0.47000000000000003,-1.09,9.28,0.0,-0.002181661564992912,-0.002181661564992912,-25.6875,-18.5625,-52.0
1762289073.2586381,-0.1745627608858871,2.96081635810468,-6.206576008559832,-0.51,-1.03,9.31,0.001090830782496456,0.001090830782496456,-0.001090830782496456,-26.75,-19.375,-51.1875
1762289073.5026498,-0.1745627608858871,2.96081635810468,-6.206576008559832,-0.39,-0.99,9.26,-0.001090830782496456,0.006544984694978736,-0.003272492347489368,-26.375,-19.375,-52.0
1762289073.8007345,-0.1745627608858871,2.96081635810468,-6.206576008559832,-0.46,-1.06,9.27,0.0,0.001090830782496456,-0.002181661564992912,-26.75,-19.0,-52.0
1762289074.0512695,-0.1745627608858871,2.96081635810468,-6.206576008559832,-0.53,-1.06,9.28,0.0,0.0,0.0,-26.75,-19.0,-51.1875
1762289074.3573685,-0.1745627608858871,2.96081635810468,-6.206576008559832,-0.48,-1.06,9.3,-0.002181661564992912,-0.001090830782496456,0.002181661564992912,-26.75,-18.5625,-51.1875
1762289074.5745542,-0.1745627608858871,2.96081635810468,-6.206576008559832,-0.49,-1.06,9.27,0.0,0.003272492347489368,-0.003272492347489368,-27.1875,-19.375,-50.75
1762289074.8518991,-0.1745627608858871,2.96081635810468,-6.206576008559832,-0.49,-1.01,9.27,0.001090830782496456,0.002181661564992912,0.0,-26.75,-19.0,-51.1875
1762289075.1023414,-0.1745627608858871,2.96081635810468,-6.206576008559832,-0.46,-1.1,9.290000000000001,0.0,-0.002181661564992912,0.0,-26.75,-19.0,-51.1875
1762289075.3677223,-0.1745627608858871,2.96081635810468,-6.206576008559832,-0.43,-1.07,9.28,0.001090830782496456,0.002181661564992912,-0.002181661564992912,-26.375,-19.0,-51.5625
1762289075.6067493,-0.1823135611508626,2.9744198473003354,-6.206837304615614,-0.5700000000000001,-0.98,9.200000000000001,-0.001090830782496456,-0.008726646259971648,-0.003272492347489368,-26.75,-19.375,-51.5625
1762289075.8337564,-0.1823122787693637,2.9742377482049855,-6.20646079266721,-0.55,-0.9500000000000001,9.26,0.002181661564992912,0.001090830782496456,0.0,-27.1875,-19.375,-51.5625
1762289076.0860617,-0.1823122787693637,2.9742377482049855,-6.20646079266721,-0.42,-1.05,9.28,-0.001090830782496456,0.0,-0.001090830782496456,-26.75,-19.375,-50.5
1762289076.3133664,-0.1823122787693637,2.9742377482049855,-6.20646079266721,-0.53,-0.9500000000000001,9.23,-0.001090830782496456,-0.004363323129985824,0.001090830782496456,-26.75,-18.5625,-51.5625
1762289076.5846891,-0.1823122787693637,2.9742377482049855,-6.20646079266721,-0.55,-1.05,9.32,0.0,-0.004363323129985824,0.001090830782496456,-27.5625,-19.0,-51.5625
1762289076.8209946,-0.1823122787693637,2.9742377482049855,-6.20646079266721,-0.5,-1.01,9.32,0.001090830782496456,0.0,0.0,-27.875,-18.5625,-50.75
1762289077.1137862,-0.1823122787693637,2.9742377482049855,-6.20646079266721,-0.42,-1.01,9.26,-0.002181661564992912,0.004363323129985824,0.0,-26.75,-18.5625,-52.0
1762289077.3403697,-0.1823122787693637,2.9742377482049855,-6.20646079266721,-0.44,-1.04,9.290000000000001,0.002181661564992912,0.0,-0.001090830782496456,-26.0625,-19.375,-51.25
1762289077.6113791,-0.1823122787693637,2.9742377482049855,-6.20646079266721,-0.48,-1.03,9.290000000000001,0.001090830782496456,0.001090830782496456,-0.001090830782496456,-27.5625,-19.0,-51.5625
1762289077.8395696,-0.1823122787693637,2.9742377482049855,-6.20646079266721,-0.44,-0.98,9.23,0.0,0.0,0.0,-26.75,-19.375,-52.0
1762289078.0762148,-0.1823122787693637,2.9742377482049855,-6.20646079266721,-0.45,-0.98,9.3,0.0,0.0,0.001090830782496456,-26.375,-19.375,-52.0
1762289078.347509,-0.1823122787693637,2.9742377482049855,-6.20646079266721,-0.47000000000000003,-1.0,9.31,0.001090830782496456,0.0,0.0,-27.5625,-19.375,-53.5625
1762289078.5811958,-0.1823122787693637,2.9742377482049855,-6.20646079266721,-0.56,-1.01,9.27,-0.002181661564992912,0.002181661564992912,0.001090830782496456,-26.75,-19.0,-53.1875
1762289078.8581665,-0.1823122787693637,2.9742377482049855,-6.20646079266721,-0.49,-1.06,9.25,0.0,0.0,-0.002181661564992912,-27.5625,-19.0,-50.75
1762289079.0921528,-0.1823122787693637,2.9742377482049855,-6.20646079266721,-0.51,-1.07,9.28,-0.001090830782496456,0.001090830782496456,0.001090830782496456,-27.1875,-19.375,-50.375
1762289079.3595543,-0.1823122787693637,2.9742377482049855,-6.20646079266721,-0.5700000000000001,-1.09,9.27,0.0,0.0,0.0,-26.75,-18.5625,-51.1875
1762289079.585907,-0.1823135611508626,2.9744198473003354,-6.206837304615614,-0.31,-1.01,9.25,-0.001090830782496456,-0.009817477042468103,0.002181661564992912,-27.1875,-19.0,-50.5
1762289079.8604085,-0.1745627608858871,2.96081635810468,-6.206576008559832,-0.31,-0.99,9.3,-0.003272492347489368,-0.00545415391248228,0.009817477042468103,-26.375,-19.375,-52.75
1762289080.1049573,-0.1823135611508626,2.9744198473003354,-6.206837304615614,-0.48,-1.03,9.3,-0.003272492347489368,-0.006544984694978736,0.0,-26.75,-18.5625,-51.25
1762289080.3700404,-0.1823135611508626,2.9744198473003354,-6.206837304615614,-0.33,-1.1500000000000001,9.27,-0.001090830782496456,-0.007635815477475192,0.003272492347489368,-26.75,-19.0,-52.0
1762289080.6276138,-0.1823135611508626,2.9744198473003354,-6.206837304615614,-0.51,-1.06,9.27,-0.001090830782496456,0.0,0.002181661564992912,-27.5625,-19.375,-52.0
1762289080.8585951,-0.1823135611508626,2.9744198473003354,-6.206837304615614,-0.54,-1.04,9.35,0.002181661564992912,-0.003272492347489368,0.0,-27.1875,-19.375,-52.75
1762289081.114326,-0.1823135611508626,2.9744198473003354,-6.206837304615614,-0.53,-1.02,9.31,-0.001090830782496456,-0.003272492347489368,0.001090830782496456,-27.1875,-19.0,-51.1875
1762289081.3393352,-0.1823135611508626,2.9744198473003354,-6.206837304615614,-0.49,-1.06,9.290000000000001,0.002181661564992912,0.003272492347489368,0.0,-27.1875,-19.0,-50.75
1762289081.6253989,-0.1823135611508626,2.9744198473003354,-6.206837304615614,-0.5,-1.01,9.28,-0.001090830782496456,0.003272492347489368,0.001090830782496456,-26.75,-19.0,-52.0
1762289081.8904836,-0.1823135611508626,2.9744198473003354,-6.206837304615614,-0.52,-1.08,9.32,0.001090830782496456,0.0,0.001090830782496456,-27.1875,-19.0,-50.75
1762289082.1781468,-0.1823135611508626,2.9744198473003354,-6.206837304615614,-0.43,-1.0,9.26,-0.001090830782496456,0.0,0.0,-27.1875,-18.5625,-51.25
1762289082.420116,-0.1823135611508626,2.9744198473003354,-6.206837304615614,-0.46,-1.0,9.3,-0.002181661564992912,-0.003272492347489368,-0.001090830782496456,-28.25,-19.375,-52.0
1762289082.7159111,-0.1823135611508626,2.9744198473003354,-6.206837304615614,-0.48,-1.03,9.27,0.001090830782496456,0.001090830782496456,0.0,-26.0625,-19.0,-50.5
1762289082.9367151,-0.1823135611508626,2.9744198473003354,-6.206837304615614,-0.47000000000000003,-1.01,9.27,-0.002181661564992912,0.003272492347489368,-0.001090830782496456,-26.75,-19.375,-51.5625
1762289083.191919,-0.1823135611508626,2.9744198473003354,-6.206837304615614,-0.49,-1.05,9.290000000000001,-0.001090830782496456,0.001090830782496456,0.0,-26.75,-18.25,-52.375
1762289083.4068139,-0.1823135611508626,2.9744198473003354,-6.206837304615614,-0.46,-1.03,9.33,0.001090830782496456,0.002181661564992912,0.0,-26.75,-18.25,-52.375
1762289083.6226761,-0.1823135611508626,2.9744198473003354,-6.206837304615614,-0.49,-1.02,9.28,-0.001090830782496456,0.001090830782496456,0.0,-27.1875,-18.5625,-52.375
1762289083.8782828,-0.1823135611508626,2.9744198473003354,-6.206837304615614,-0.47000000000000003,-1.01,9.290000000000001,-0.001090830782496456,-0.001090830782496456,-0.001090830782496456,-26.375,-19.0,-52.0
1762289084.088182,-0.1823135611508626,2.9744198473003354,-6.206837304615614,-0.47000000000000003,-1.05,9.28,-0.001090830782496456,-0.001090830782496456,0.001090830782496456,-27.5625,-18.5625,-51.25
1762289084.498551,-0.1823135611508626,2.9744198473003354,-6.206837304615614,-0.47000000000000003,-0.99,9.28,0.001090830782496456,0.003272492347489368,-0.004363323129985824,-27.5625,-19.375,-52.375
1762289084.8036945,-0.1823135611508626,2.9744198473003354,-6.206837304615614,-0.5,-1.08,9.27,0.0,0.0,0.0,-26.375,-18.5625,-50.75
1762289085.0240333,-0.1823135611508626,2.9744198473003354,-6.206837304615614,-0.52,-1.05,9.290000000000001,0.0,0.004363323129985824,0.0,-26.375,-18.5625,-51.5625
1762289085.2371635,-0.1823135611508626,2.9744198473003354,-6.206837304615614,-0.46,-1.01,9.3,0.0,-0.001090830782496456,-0.001090830782496456,-26.75,-18.5625,-52.375
1762289085.49456,-0.1823135611508626,2.9744198473003354,-6.206837304615614,-0.51,-1.04,9.3,0.0,0.002181661564992912,-0.003272492347489368,-27.1875,-19.0,-51.5625
1762289085.718915,-0.1823135611508626,2.9744198473003354,-6.206837304615614,-0.49,-1.03,9.28,-0.001090830782496456,-0.002181661564992912,0.002181661564992912,-26.75,-18.5625,-51.5625
1762289085.9786189,-0.1823135611508626,2.9744198473003354,-6.206837304615614,-0.48,-1.04,9.28,0.0,0.0,0.0,-27.5625,-18.5625,-51.1875
1762289086.2064762,-0.1823135611508626,2.9744198473003354,-6.206837304615614,-0.48,-1.06,9.27,0.001090830782496456,0.0,0.0,-26.75,-19.0,-52.0
1762289086.4305766,-0.1823135611508626,2.9744198473003354,-6.206837304615614,-0.48,-1.06,9.28,0.001090830782496456,0.001090830782496456,-0.001090830782496456,-27.875,-19.375,-51.5625
1762289086.6848953,-0.1823135611508626,2.9744198473003354,-6.206837304615614,-0.48,-1.04,9.28,-0.002181661564992912,0.0,0.0,-27.1875,-19.75,-50.5
1762289086.930353,-0.1823135611508626,2.9744198473003354,-6.206837304615614,-0.45,-1.07,9.27,0.001090830782496456,0.0,0.0,-27.1875,-19.0,-52.375
1762289087.1928828,-0.1823135611508626,2.9744198473003354,-6.206837304615614,-0.48,-1.02,9.28,-0.001090830782496456,-0.002181661564992912,0.001090830782496456,-27.1875,-19.375,-52.75
1762289087.4126103,-0.1823135611508626,2.9744198473003354,-6.206837304615614,-0.5,-1.05,9.3,-0.001090830782496456,0.0,0.0,-26.75,-18.25,-51.5625
1762289087.676801,-0.1823135611508626,2.9744198473003354,-6.206837304615614,-0.49,-1.0,9.3,0.0,0.0,0.0,-26.75,-19.75,-51.25
1762289087.9049299,-0.1823135611508626,2.9744198473003354,-6.206837304615614,-0.46,-1.03,9.26,-0.001090830782496456,0.001090830782496456,0.0,-27.875,-19.375,-52.0
1762289088.1771874,-0.1823135611508626,2.9744198473003354,-6.206837304615614,-0.47000000000000003,-1.01,9.28,0.0,0.002181661564992912,-0.001090830782496456,-26.75,-19.0,-51.5625
1762289088.4017231,-0.1823135611508626,2.9744198473003354,-6.206837304615614,-0.51,-1.03,9.28,0.001090830782496456,-0.001090830782496456,0.001090830782496456,-27.5625,-19.0,-51.25
1762289088.6321278,-0.1823135611508626,2.9744198473003354,-6.206837304615614,-0.5,-1.03,9.290000000000001,0.001090830782496456,0.003272492347489368,0.002181661564992912,-27.1875,-19.0,-50.75
1762289088.8878756,-0.1823135611508626,2.9744198473003354,-6.206837304615614,-0.48,-1.08,9.3,0.0,0.0,-0.003272492347489368,-26.75,-18.5625,-51.5625
1762289089.1050391,-0.1823135611508626,2.9744198473003354,-6.206837304615614,-0.5,-1.03,9.3,-0.002181661564992912,0.004363323129985824,0.0,-27.1875,-18.25,-51.5625
1762289089.3688962,-0.1823135611508626,2.9744198473003354,-6.206837304615614,-0.47000000000000003,-1.04,9.3,0.0,0.0,0.001090830782496456,-26.0625,-19.0,-51.1875
1762289089.5929341,-0.1823135611508626,2.9744198473003354,-6.206837304615614,-0.45,-1.07,9.290000000000001,0.001090830782496456,-0.001090830782496456,0.0,-27.1875,-19.0,-52.5
1762289089.866511,-0.1823135611508626,2.9744198473003354,-6.206837304615614,-0.55,-1.09,9.3,-0.001090830782496456,0.001090830782496456,0.002181661564992912,-26.75,-19.0,-52.0
1762289090.1173148,-0.1823135611508626,2.9744198473003354,-6.206837304615614,-0.51,-1.04,9.32,0.0,0.001090830782496456,0.001090830782496456,-26.75,-19.0,-52.375
1762289090.399101,-0.1823135611508626,2.9744198473003354,-6.206837304615614,-0.46,-1.04,9.28,0.001090830782496456,0.0,0.0,-25.6875,-18.5625,-52.375
1762289090.6394727,-0.1823135611508626,2.9744198473003354,-6.206837304615614,-0.47000000000000003,-1.03,9.33,0.0,0.002181661564992912,-0.001090830782496456,-27.1875,-19.0,-51.5625
1762289090.8718436,-0.1823135611508626,2.9744198473003354,-6.206837304615614,-0.47000000000000003,-1.01,9.290000000000001,0.0,-0.002181661564992912,0.0,-27.1875,-18.25,-52.0
1762289091.133454,-0.1823135611508626,2.9744198473003354,-6.206837304615614,-0.45,-1.01,9.31,0.0,0.001090830782496456,0.0,-27.1875,-19.375,-51.5625
1762289091.3637967,-0.1823135611508626,2.9744198473003354,-6.206837304615614,-0.51,-1.04,9.290000000000001,-0.001090830782496456,0.0,0.0,-27.1875,-19.0,-52.375
1762289091.6340964,-0.1823135611508626,2.9744198473003354,-6.206837304615614,-0.49,-1.07,9.290000000000001,0.002181661564992912,-0.003272492347489368,-0.001090830782496456,-27.5625,-19.375,-52.375
1762289091.8869002,-0.1823135611508626,2.9744198473003354,-6.206837304615614,-0.49,-1.04,9.290000000000001,0.0,-0.001090830782496456,0.0,-27.5625,-18.25,-52.375
1762289092.1698873,-0.1823135611508626,2.9744198473003354,-6.206837304615614,-0.5,-1.03,9.3,-0.001090830782496456,-0.001090830782496456,0.0,-27.1875,-19.0,-51.5625
1762289092.3985064,-0.1823135611508626,2.9744198473003354,-6.206837304615614,-0.47000000000000003,-1.06,9.34,0.001090830782496456,-0.003272492347489368,0.0,-27.1875,-19.0,-52.375
1762289092.6669347,-0.1823135611508626,2.9744198473003354,-6.206837304615614,-0.41000000000000003,-1.07,9.3,0.0,-0.002181661564992912,-0.001090830782496456,-27.1875,-19.0,-51.5625
1762289092.8979023,-0.1823135611508626,2.9744198473003354,-6.206837304615614,-0.51,-1.0,9.33,0.0,0.0,-0.001090830782496456,-26.75,-18.25,-52.75
1762289093.1828713,-0.1823135611508626,2.9744198473003354,-6.206837304615614,-0.45,-1.09,9.290000000000001,0.0,-0.002181661564992912,0.002181661564992912,-27.1875,-19.75,-51.5625
1762289093.4175613,-0.1823135611508626,2.9744198473003354,-6.206837304615614,-0.52,-1.06,9.26,0.0,0.001090830782496456,-0.002181661564992912,-26.0625,-18.5625,-52.375
1762289093.65646,-0.1823135611508626,2.9744198473003354,-6.206837304615614,-0.45,-1.0,9.28,0.0,0.001090830782496456,-0.001090830782496456,-26.75,-19.375,-51.1875
1762289093.9176123,-0.1823135611508626,2.9744198473003354,-6.206837304615614,-0.48,-1.02,9.28,-0.001090830782496456,0.002181661564992912,-0.001090830782496456,-27.1875,-19.0,-51.1875
1762289094.1455872,-0.1823135611508626,2.9744198473003354,-6.206837304615614,-0.46,-1.06,9.25,0.001090830782496456,-0.004363323129985824,0.001090830782496456,-26.0625,-18.5625,-51.5625
1762289094.4178443,-0.1823135611508626,2.9744198473003354,-6.206837304615614,-0.48,-1.01,9.290000000000001,0.001090830782496456,0.003272492347489368,-0.001090830782496456,-26.375,-18.5625,-52.75
1762289094.6587744,-0.1823135611508626,2.9744198473003354,-6.206837304615614,-0.46,-1.05,9.290000000000001,-0.002181661564992912,0.001090830782496456,0.0,-26.75,-19.0,-51.1875
1762289094.933377,-0.1823135611508626,2.9744198473003354,-6.206837304615614,-0.47000000000000003,-1.01,9.27,0.001090830782496456,-0.001090830782496456,-0.001090830782496456,-27.1875,-18.5625,-50.75
1762289095.168405,-0.1823135611508626,2.9744198473003354,-6.206837304615614,-0.45,-1.03,9.32,0.001090830782496456,0.001090830782496456,0.0,-26.75,-20.0625,-52.0
1762289095.4412987,-0.1823135611508626,2.9744198473003354,-6.206837304615614,-0.49,-1.01,9.31,-0.001090830782496456,0.0,-0.001090830782496456,-26.375,-18.25,-52.5
1762289095.68082,-0.1823135611508626,2.9744198473003354,-6.206837304615614,-0.45,-1.04,9.3,0.001090830782496456,0.0,0.0,-27.1875,-20.0625,-52.375
1762289095.940802,-0.1823135611508626,2.9744198473003354,-6.206837304615614,-0.47000000000000003,-1.01,9.27,0.001090830782496456,0.002181661564992912,-0.001090830782496456,-26.75,-19.0,-52.375
1762289096.1995394,-0.1823135611508626,2.9744198473003354,-6.206837304615614,-0.48,-1.0,9.27,0.0,0.001090830782496456,0.001090830782496456,-26.75,-19.375,-52.375
1762289096.4368947,-0.1823135611508626,2.9744198473003354,-6.206837304615614,-0.46,-1.1,9.28,-0.001090830782496456,0.001090830782496456,-0.002181661564992912,-27.1875,-18.25,-51.1875
1762289096.709822,-0.1823135611508626,2.9744198473003354,-6.206837304615614,-0.47000000000000003,-1.07,9.31,0.0,-0.003272492347489368,0.001090830782496456,-27.1875,-19.0,-52.75
1762289096.9816346,-0.1823135611508626,2.9744198473003354,-6.206837304615614,-0.46,-1.02,9.27,0.001090830782496456,0.001090830782496456,0.0,-26.375,-18.5625,-52.0
1762289097.2741554,-0.1823135611508626,2.9744198473003354,-6.206837304615614,-0.45,-1.02,9.3,0.002181661564992912,0.004363323129985824,-0.001090830782496456,-27.1875,-18.5625,-52.75
1762289097.5261378,-0.1823135611508626,2.9744198473003354,-6.206837304615614,-0.44,-1.06,9.27,0.001090830782496456,0.0,-0.001090830782496456,-27.5625,-19.0,-52.375
1762289097.8067737,-0.1823135611508626,2.9744198473003354,-6.206837304615614,-0.43,-1.07,9.24,0.001090830782496456,0.0,-0.001090830782496456,-26.0625,-19.375,-50.75
1762289098.0285525,-0.1823135611508626,2.9744198473003354,-6.206837304615614,-0.48,-1.01,9.27,0.001090830782496456,-0.002181661564992912,0.0,-26.375,-19.75,-53.1875
1762289098.298426,-0.1823135611508626,2.9744198473003354,-6.206837304615614,-0.45,-1.02,9.290000000000001,0.0,0.002181661564992912,0.0,-27.5625,-19.0,-52.0
1762289098.5118554,-0.1823135611508626,2.9744198473003354,-6.206837304615614,-0.46,-1.03,9.3,0.0,0.002181661564992912,-0.001090830782496456,-27.1875,-19.0,-52.375
1762289098.7762663,-0.1823135611508626,2.9744198473003354,-6.206837304615614,-0.49,-1.04,9.26,-0.001090830782496456,0.0,0.0,-27.1875,-19.0,-51.1875
1762289099.0047896,-0.1823135611508626,2.9744198473003354,-6.206837304615614,-0.48,-1.03,9.3,-0.001090830782496456,0.0,0.001090830782496456,-26.75,-19.75,-52.375
1762289099.2158558,-0.1823135611508626,2.9744198473003354,-6.206837304615614,-0.48,-1.03,9.28,-0.001090830782496456,-0.001090830782496456,0.0,-26.75,-18.5625,-52.0
1762289099.4755945,-0.1823135611508626,2.9744198473003354,-6.206837304615614,-0.45,-0.98,9.26,0.0,-0.001090830782496456,0.0,-27.5625,-19.375,-52.0
1762289099.6958215,-0.1823135611508626,2.9744198473003354,-6.206837304615614,-0.5,-1.03,9.27,0.0,0.001090830782496456,0.001090830782496456,-27.1875,-19.0,-51.5625
1762289099.9512706,-0.1823135611508626,2.9744198473003354,-6.206837304615614,-0.46,-1.02,9.25,0.002181661564992912,0.001090830782496456,-0.001090830782496456,-26.75,-19.375,-51.5625
1762289100.1768556,-0.1823135611508626,2.9744198473003354,-6.206837304615614,-0.43,-1.03,9.25,0.002181661564992912,-0.001090830782496456,0.0,-28.25,-19.375,-52.0
1762289100.4328613,-0.1823135611508626,2.9744198473003354,-6.206837304615614,-0.5,-0.97,9.27,0.002181661564992912,0.002181661564992912,-0.002181661564992912,-27.875,-18.5625,-52.0
1762289100.6593058,-0.1823135611508626,2.9744198473003354,-6.206837304615614,-0.49,-1.02,9.25,0.001090830782496456,0.004363323129985824,0.001090830782496456,-27.1875,-18.25,-50.0625
1762289100.8770308,-0.1823135611508626,2.9744198473003354,-6.206837304615614,-0.43,-1.01,9.26,0.001090830782496456,0.001090830782496456,-0.001090830782496456,-26.75,-19.375,-51.1875
1762289101.120728,-0.1823135611508626,2.9744198473003354,-6.206837304615614,-0.44,-1.02,9.28,0.0,0.0,-0.001090830782496456,-27.1875,-19.375,-52.0
1762289101.3339574,-0.1823135611508626,2.9744198473003354,-6.206837304615614,-0.48,-1.01,9.27,0.001090830782496456,0.0,0.002181661564992912,-27.1875,-19.0,-51.5625
1762289101.5938885,-0.1823135611508626,2.9744198473003354,-6.206837304615614,-0.46,-1.06,9.27,-0.001090830782496456,-0.002181661564992912,0.0,-27.5625,-18.5625,-51.5625
1762289101.8144975,-0.1823135611508626,2.9744198473003354,-6.206837304615614,-0.48,-1.02,9.290000000000001,0.002181661564992912,0.001090830782496456,-0.001090830782496456,-26.375,-19.0,-51.1875
1762289102.0915074,-0.1823135611508626,2.9744198473003354,-6.206837304615614,-0.45,-1.04,9.3,0.0,0.0,0.001090830782496456,-26.375,-19.75,-52.375
1762289102.314476,-0.1823135611508626,2.9744198473003354,-6.206837304615614,-0.47000000000000003,-1.05,9.290000000000001,0.0,0.0,-0.001090830782496456,-27.1875,-19.0,-51.5625
1762289102.5336056,-0.1823135611508626,2.9744198473003354,-6.206837304615614,-0.45,-1.07,9.25,0.0,0.0,-0.001090830782496456,-27.1875,-19.0,-51.5625
1762289102.8097,-0.1823135611508626,2.9744198473003354,-6.206837304615614,-0.45,-1.01,9.28,-0.001090830782496456,-0.001090830782496456,-0.001090830782496456,-26.75,-18.5625,-51.5625
1762289103.0460196,-0.1823135611508626,2.9744198473003354,-6.206837304615614,-0.51,-1.07,9.27,-0.001090830782496456,0.0,-0.002181661564992912,-26.75,-19.0,-50.75
1762289103.306332,-0.1823135611508626,2.9744198473003354,-6.206837304615614,-0.48,-1.07,9.27,-0.001090830782496456,0.0,-0.003272492347489368,-27.875,-19.0,-51.1875
1762289103.5276258,-0.1823135611508626,2.9744198473003354,-6.206837304615614,-0.45,-1.08,9.28,-0.002181661564992912,-0.001090830782496456,0.0,-27.1875,-19.0,-52.375
1762289103.8078542,-0.1823135611508626,2.9744198473003354,-6.206837304615614,-0.47000000000000003,-1.03,9.28,0.001090830782496456,0.001090830782496456,-0.002181661564992912,-26.75,-19.0,-52.5
1762289104.037511,-0.1823135611508626,2.9744198473003354,-6.206837304615614,-0.49,-1.02,9.27,0.001090830782496456,0.0,0.0,-26.375,-19.375,-51.25
1762289104.2986956,-0.1823135611508626,2.9744198473003354,-6.206837304615614,-0.51,-1.01,9.25,-0.001090830782496456,-0.002181661564992912,0.001090830782496456,-26.75,-19.375,-50.75
1762289104.539076,-0.1823135611508626,2.9744198473003354,-6.206837304615614,-0.46,-1.01,9.27,0.0,0.001090830782496456,-0.001090830782496456,-27.5625,-19.0,-52.0
1762289104.7631912,-0.1823135611508626,2.9744198473003354,-6.206837304615614,-0.47000000000000003,-0.97,9.28,0.0,-0.001090830782496456,0.0,-26.75,-19.0,-52.5
1762289105.0138905,-0.1823135611508626,2.9744198473003354,-6.206837304615614,-0.45,-1.02,9.26,-0.001090830782496456,-0.001090830782496456,-0.001090830782496456,-27.1875,-18.25,-52.5
1762289105.2343736,-0.1823135611508626,2.9744198473003354,-6.206837304615614,-0.48,-0.99,9.28,-0.001090830782496456,0.001090830782496456,0.001090830782496456,-27.875,-19.0,-51.25
1762289105.4991434,-0.1823135611508626,2.9744198473003354,-6.206837304615614,-0.45,-1.08,9.27,-0.001090830782496456,0.001090830782496456,-0.001090830782496456,-26.375,-19.0,-51.25
1762289105.725966,-0.1823135611508626,2.9744198473003354,-6.206837304615614,-0.46,-1.05,9.290000000000001,0.0,-0.004363323129985824,0.0,-26.375,-19.0,-52.0
1762289105.9880118,-0.1823135611508626,2.9744198473003354,-6.206837304615614,-0.45,-1.0,9.26,0.0,0.003272492347489368,0.001090830782496456,-26.75,-19.0,-52.0
1762289106.2114537,-0.1823135611508626,2.9744198473003354,-6.206837304615614,-0.49,-1.04,9.28,-0.001090830782496456,-0.001090830782496456,0.002181661564992912,-26.75,-18.5625,-52.0
1762289106.4356565,-0.1823135611508626,2.9744198473003354,-6.206837304615614,-0.49,-1.01,9.3,-0.001090830782496456,-0.002181661564992912,0.0,-27.1875,-18.5625,-51.5625
1762289106.690262,-0.1823135611508626,2.9744198473003354,-6.206837304615614,-0.5,-1.05,9.290000000000001,-0.002181661564992912,-0.001090830782496456,-0.002181661564992912,-27.1875,-19.375,-52.375
1762289106.934431,-0.1823135611508626,2.9744198473003354,-6.206837304615614,-0.46,-1.05,9.28,0.0,-0.001090830782496456,0.002181661564992912,-27.1875,-19.0,-52.0
1762289107.201709,-0.1823135611508626,2.9744198473003354,-6.206837304615614,-0.45,-1.03,9.23,-0.001090830782496456,0.001090830782496456,-0.002181661564992912,-27.5625,-19.375,-50.75
1762289107.4237406,-0.1823135611508626,2.9744198473003354,-6.206837304615614,-0.48,-1.05,9.32,-0.001090830782496456,0.0,-0.001090830782496456,-27.1875,-19.375,-52.75
1762289107.881941,-0.1823135611508626,2.9744198473003354,-6.206837304615614,-0.49,-0.97,9.3,0.0,-0.001090830782496456,0.0,-26.75,-19.375,-52.0
1762289108.1712568,-0.1823135611508626,2.9744198473003354,-6.206837304615614,-0.45,-1.05,9.3,0.0,0.0,0.0,-27.5625,-18.5625,-52.0
1762289108.4061913,-0.1823135611508626,2.9744198473003354,-6.206837304615614,-0.47000000000000003,-1.04,9.28,0.001090830782496456,-0.001090830782496456,0.001090830782496456,-26.75,-19.375,-52.0
1762289108.6378214,-0.1823135611508626,2.9744198473003354,-6.206837304615614,-0.45,-1.02,9.31,-0.001090830782496456,-0.002181661564992912,0.0,-26.0625,-18.5625,-51.5625
1762289108.8969507,-0.1823135611508626,2.9744198473003354,-6.206837304615614,-0.47000000000000003,-1.04,9.3,0.0,0.002181661564992912,-0.001090830782496456,-26.375,-19.0,-52.375
1762289109.133131,-0.1823135611508626,2.9744198473003354,-6.206837304615614,-0.44,-1.02,9.290000000000001,0.001090830782496456,0.004363323129985824,-0.001090830782496456,-26.75,-19.0,-52.0
1762289109.4044125,-0.1823135611508626,2.9744198473003354,-6.206837304615614,-0.51,-1.04,9.22,0.0,-0.002181661564992912,0.001090830782496456,-26.375,-18.25,-51.5625
1762289109.6344657,-0.1823135611508626,2.9744198473003354,-6.206837304615614,-0.45,-1.04,9.33,0.0,-0.001090830782496456,-0.001090830782496456,-27.5625,-19.0,-51.1875
1762289109.904227,-0.1823135611508626,2.9744198473003354,-6.206837304615614,-0.46,-1.04,9.27,-0.001090830782496456,-0.001090830782496456,-0.001090830782496456,-26.375,-18.5625,-51.5625
1762289110.1338427,-0.1823135611508626,2.9744198473003354,-6.206837304615614,-0.48,-0.99,9.3,0.0,0.001090830782496456,-0.002181661564992912,-26.75,-18.5625,-51.1875
1762289110.3913465,-0.1823135611508626,2.9744198473003354,-6.206837304615614,-0.47000000000000003,-1.06,9.28,-0.002181661564992912,-0.003272492347489368,-0.001090830782496456,-26.75,-19.0,-52.375
1762289110.6453466,-0.1823135611508626,2.9744198473003354,-6.206837304615614,-0.44,-0.9500000000000001,9.3,0.0,0.002181661564992912,-0.002181661564992912,-27.1875,-19.0,-51.5625
1762289110.9031384,-0.1823135611508626,2.9744198473003354,-6.206837304615614,-0.49,-1.03,9.31,0.0,0.002181661564992912,0.0,-27.1875,-19.75,-51.25
1762289111.1472714,-0.1823135611508626,2.9744198473003354,-6.206837304615614,-0.47000000000000003,-1.0,9.28,0.002181661564992912,0.0,-0.001090830782496456,-26.375,-18.5625,-52.75
1762289111.3718064,-0.1823135611508626,2.9744198473003354,-6.206837304615614,-0.49,-1.02,9.27,0.0,0.002181661564992912,0.0,-26.75,-18.25,-52.375
1762289111.6457803,-0.1823135611508626,2.9744198473003354,-6.206837304615614,-0.44,-1.01,9.3,0.001090830782496456,0.0,0.001090830782496456,-26.75,-18.5625,-51.25
1762289111.899231,-0.1823135611508626,2.9744198473003354,-6.206837304615614,-0.45,-1.05,9.290000000000001,0.0,-0.001090830782496456,0.0,-26.75,-18.5625,-51.25
1762289112.1789203,-0.1823135611508626,2.9744198473003354,-6.206837304615614,-0.51,-1.02,9.290000000000001,0.001090830782496456,0.0,0.0,-26.75,-18.5625,-51.5625
1762289112.41461,-0.1823135611508626,2.9744198473003354,-6.206837304615614,-0.47000000000000003,-1.03,9.27,0.001090830782496456,0.001090830782496456,0.001090830782496456,-44.5,-30.875,-85.5
1762289112.6979878,-0.1823135611508626,2.9744198473003354,-6.206837304615614,-0.47000000000000003,-1.03,9.27,-0.001090830782496456,-0.001090830782496456,0.002181661564992912,-45.25,-30.875,-85.875
1762289112.9391673,-0.1823135611508626,2.9744198473003354,-6.206837304615614,-0.49,-1.07,9.3,-0.001090830782496456,0.0,-0.002181661564992912,-44.875,-31.6875,-86.25
1762289113.2224543,-0.1828746981855189,2.981227211833185,-6.21353322153021,-0.6,-1.16,9.120000000000001,-0.011999138607461015,-0.002181661564992912,0.013089969389957472,-45.25,-31.6875,-85.875
1762289113.4609141,-0.19667365013082402,2.980471025902371,-6.206864403620058,-0.5,-1.08,9.26,-0.00545415391248228,0.006544984694978736,-0.001090830782496456,-44.875,-31.25,-86.6875
1762289113.7425556,-0.19667365013082402,2.980471025902371,-6.206864403620058,-0.48,-1.06,9.26,-0.001090830782496456,0.001090830782496456,-0.001090830782496456,-44.5,-31.25,-87.0625
1762289114.0317118,-0.19667365013082402,2.980471025902371,-6.206864403620058,-0.45,-1.08,9.24,-0.003272492347489368,-0.002181661564992912,-0.001090830782496456,-44.0625,-31.25,-85.0625
1762289114.3164127,-0.19667365013082402,2.980471025902371,-6.206864403620058,-0.5,-1.05,9.3,-0.001090830782496456,-0.001090830782496456,-0.002181661564992912,-44.5,-31.25,-87.5
1762289114.5677383,-0.19667365013082402,2.980471025902371,-6.206864403620058,-0.46,-1.06,9.3,0.002181661564992912,0.001090830782496456,0.001090830782496456,-43.75,-31.6875,-85.5625
1762289114.8507066,-0.19667365013082402,2.980471025902371,-6.206864403620058,-0.53,-1.03,9.27,0.0,0.001090830782496456,0.001090830782496456,-44.0625,-31.25,-86.25
1762289115.1138265,-0.19667365013082402,2.980471025902371,-6.206864403620058,-0.43,-0.99,9.27,0.0,-0.003272492347489368,0.001090830782496456,-44.875,-31.25,-86.25
1762289115.3729272,-0.19667365013082402,2.980471025902371,-6.206864403620058,-0.46,-1.02,9.28,-0.001090830782496456,0.001090830782496456,-0.003272492347489368,-44.0625,-31.25,-85.0625
1762289115.6473494,-0.19667365013082402,2.980471025902371,-6.206864403620058,-0.48,-1.04,9.28,0.0,-0.004363323129985824,0.001090830782496456,-44.0625,-30.875,-85.875
1762289115.9130163,-0.19667365013082402,2.980471025902371,-6.206864403620058,-0.45,-1.02,9.27,0.001090830782496456,-0.001090830782496456,-0.001090830782496456,-45.25,-31.25,-85.5625
1762289116.1535437,-0.19667365013082402,2.980471025902371,-6.206864403620058,-0.47000000000000003,-1.05,9.290000000000001,-0.001090830782496456,-0.001090830782496456,0.0,-44.5,-31.25,-85.5625
1762289116.3895514,-0.19667365013082402,2.980471025902371,-6.206864403620058,-0.45,-1.04,9.290000000000001,0.0,-0.002181661564992912,-0.001090830782496456,-44.875,-31.6875,-85.875
1762289116.6652927,-0.19667365013082402,2.980471025902371,-6.206864403620058,-0.47000000000000003,-1.05,9.290000000000001,-0.002181661564992912,0.003272492347489368,0.0,-44.875,-31.25,-87.0625
1762289116.9233184,-0.19667365013082402,2.980471025902371,-6.206864403620058,-0.46,-1.04,9.3,0.001090830782496456,0.0,0.0,-44.5,-30.875,-87.0625
1762289117.203426,-0.19667365013082402,2.980471025902371,-6.206864403620058,-0.48,-1.01,9.32,-0.001090830782496456,0.0,0.001090830782496456,-43.75,-31.25,-86.25
1762289117.4565601,-0.19667365013082402,2.980471025902371,-6.206864403620058,-0.46,-1.01,9.31,-0.001090830782496456,0.002181661564992912,0.0,-44.5,-31.25,-86.25
1762289117.755692,-0.19667365013082402,2.980471025902371,-6.206864403620058,-0.48,-1.06,9.290000000000001,-0.001090830782496456,0.001090830782496456,-0.002181661564992912,-45.25,-32.0625,-86.25
1762289118.0137193,-0.19667365013082402,2.980471025902371,-6.206864403620058,-0.47000000000000003,-1.01,9.3,0.0,-0.003272492347489368,0.0,-44.0625,-31.25,-85.875
1762289118.3066072,-0.19667365013082402,2.980471025902371,-6.206864403620058,-0.45,-1.08,9.25,0.0,0.0,0.0,-44.5,-32.0625,-86.25
1762289118.562397,-0.19667365013082402,2.980471025902371,-6.206864403620058,-0.49,-1.03,9.28,-0.001090830782496456,0.0,-0.002181661564992912,-44.5,-32.0625,-86.25
1762289118.8843443,-0.19667365013082402,2.980471025902371,-6.206864403620058,-0.5,-1.03,9.27,-0.001090830782496456,0.001090830782496456,0.001090830782496456,-44.0625,-31.6875,-86.25
1762289119.141443,-0.19667365013082402,2.980471025902371,-6.206864403620058,-0.44,-1.01,9.290000000000001,0.0,-0.004363323129985824,0.0,-44.0625,-31.6875,-86.25
1762289119.4483485,-0.19667365013082402,2.980471025902371,-6.206864403620058,-0.45,-1.07,9.28,0.0,0.0,0.0,-44.875,-32.0625,-85.875
1762289119.6743293,-0.19667365013082402,2.980471025902371,-6.206864403620058,-0.46,-1.02,9.290000000000001,-0.001090830782496456,0.001090830782496456,0.0,-44.875,-31.25,-85.875
1762289119.9535053,-0.19667365013082402,2.980471025902371,-6.206864403620058,-0.44,-1.03,9.27,0.0,0.001090830782496456,0.001090830782496456,-44.5,-30.875,-85.875
1762289120.1911857,-0.19667365013082402,2.980471025902371,-6.206864403620058,-0.44,-1.04,9.27,0.0,-0.001090830782496456,-0.001090830782496456,-44.0625,-30.5625,-85.875
1762289120.4662638,-0.19667365013082402,2.980471025902371,-6.206864403620058,-0.48,-1.04,9.27,-0.001090830782496456,0.001090830782496456,0.001090830782496456,-44.5,-30.875,-86.25
1762289120.702758,-0.19667365013082402,2.980471025902371,-6.206864403620058,-0.47000000000000003,-1.05,9.26,-0.001090830782496456,0.0,-0.002181661564992912,-44.0625,-30.875,-86.6875
1762289120.972634,-0.19667365013082402,2.980471025902371,-6.206864403620058,-0.47000000000000003,-1.01,9.28,-0.001090830782496456,0.002181661564992912,-0.001090830782496456,-44.5,-31.6875,-86.25
1762289121.2067857,-0.19667365013082402,2.980471025902371,-6.206864403620058,-0.48,-1.06,9.27,0.0,0.0,-0.001090830782496456,-44.0625,-31.6875,-85.5625
1762289121.4355748,-0.19667365013082402,2.980471025902371,-6.206864403620058,-0.45,-1.04,9.28,0.0,0.002181661564992912,-0.001090830782496456,-44.5,-31.25,-85.5625
1762289121.696768,-0.19667365013082402,2.980471025902371,-6.206864403620058,-0.47000000000000003,-1.01,9.27,0.0,-0.002181661564992912,-0.002181661564992912,-45.25,-31.6875,-86.6875
1762289121.9498794,-0.19667365013082402,2.980471025902371,-6.206864403620058,-0.48,-1.02,9.25,-0.001090830782496456,-0.001090830782496456,0.0,-43.375,-30.875,-86.25
1762289122.2343333,-0.19667365013082402,2.980471025902371,-6.206864403620058,-0.47000000000000003,-1.03,9.27,-0.001090830782496456,0.002181661564992912,0.0,-44.0625,-30.875,-85.5625
1762289122.4786663,-0.19667365013082402,2.980471025902371,-6.206864403620058,-0.47000000000000003,-1.01,9.28,0.001090830782496456,0.002181661564992912,-0.001090830782496456,-44.875,-31.25,-85.875
1762289122.7568126,-0.19667365013082402,2.980471025902371,-6.206864403620058,-0.48,-1.03,9.28,-0.001090830782496456,-0.002181661564992912,0.0,-44.875,-31.25,-86.25
1762289123.0048368,-0.19667365013082402,2.980471025902371,-6.206864403620058,-0.47000000000000003,-1.01,9.25,0.0,-0.001090830782496456,0.001090830782496456,-43.75,-32.0625,-85.875
1762289123.288484,-0.19667365013082402,2.980471025902371,-6.206864403620058,-0.46,-1.06,9.28,0.0,0.0,0.002181661564992912,-43.375,-32.375,-85.875
1762289123.4887855,-0.12663792493957007,-2.9952101196467105,6.227639849702706,-0.47000000000000003,-1.03,9.27,0.0,-0.003272492347489368,0.001090830782496456,-44.0625,-31.6875,-85.875
1762289123.7258902,-0.19667365013082402,2.980471025902371,-6.206864403620058,-0.47000000000000003,-1.02,9.27,0.0,0.0,0.0,-44.875,-30.5625,-85.875
1762289123.928568,-0.19667365013082402,2.980471025902371,-6.206864403620058,-0.46,-1.02,9.290000000000001,0.0,0.002181661564992912,-0.002181661564992912,-44.875,-31.6875,-85.5625
1762289124.12843,-0.19667365013082402,2.980471025902371,-6.206864403620058,-0.49,-1.01,9.31,0.0,0.0,-0.002181661564992912,-44.0625,-32.0625,-87.0625
1762289124.3771918,-0.19667365013082402,2.980471025902371,-6.206864403620058,-0.51,-1.05,9.31,0.0,0.001090830782496456,-0.002181661564992912,-44.5,-30.1875,-85.875
1762289124.5843856,-0.19667365013082402,2.980471025902371,-6.206864403620058,-0.4,-1.11,9.27,0.0,0.001090830782496456,-0.002181661564992912,-44.0625,-30.875,-85.5625
1762289124.8231878,-0.19667365013082402,2.980471025902371,-6.206864403620058,-0.55,-1.09,9.290000000000001,-0.002181661564992912,0.0,0.0,-44.875,-31.25,-85.875
1762289125.0397203,-0.19667365013082402,2.980471025902371,-6.206864403620058,-0.45,-1.04,9.32,-0.001090830782496456,0.0,0.0,-44.875,-31.6875,-85.0625
1762289125.243064,-0.19667365013082402,2.980471025902371,-6.206864403620058,-0.53,-1.06,9.32,0.001090830782496456,-0.001090830782496456,-0.001090830782496456,-45.25,-31.25,-85.875
1762289125.5011406,-0.19667365013082402,2.980471025902371,-6.206864403620058,-0.46,-1.03,9.27,-0.001090830782496456,0.0,-0.001090830782496456,-44.5,-30.875,-86.6875
1762289125.7241323,-0.19667365013082402,2.980471025902371,-6.206864403620058,-0.45,-1.03,9.3,0.0,0.001090830782496456,0.0,-44.875,-31.6875,-85.875
1762289125.9743984,-0.19667365013082402,2.980471025902371,-6.206864403620058,-0.45,-1.06,9.31,0.001090830782496456,-0.002181661564992912,-0.001090830782496456,-44.5,-31.6875,-86.25
1762289126.1826549,-0.19667365013082402,2.980471025902371,-6.206864403620058,-0.45,-1.01,9.24,0.002181661564992912,0.001090830782496456,-0.002181661564992912,-45.25,-30.875,-85.5625
1762289126.3948145,-0.19667365013082402,2.980471025902371,-6.206864403620058,-0.49,-1.06,9.27,0.001090830782496456,0.001090830782496456,0.0,-44.875,-31.25,-85.5625
1762289126.6522896,-0.19667365013082402,2.980471025902371,-6.206864403620058,-0.48,-1.04,9.3,0.0,-0.001090830782496456,0.0,-44.5,-32.0625,-86.25
1762289126.8759491,-0.19667365013082402,2.980471025902371,-6.206864403620058,-0.47000000000000003,-1.06,9.28,-0.002181661564992912,0.0,-0.001090830782496456,-43.75,-31.6875,-85.5625
1762289127.1437416,-0.19667365013082402,2.980471025902371,-6.206864403620058,-0.47000000000000003,-1.02,9.290000000000001,0.0,0.001090830782496456,0.001090830782496456,-45.25,-31.6875,-85.0625
1762289127.3640492,-0.19667365013082402,2.980471025902371,-6.206864403620058,-0.48,-1.06,9.25,0.001090830782496456,-0.002181661564992912,0.0,-45.25,-32.0625,-85.875
1762289127.574972,-0.19667365013082402,2.980471025902371,-6.206864403620058,-0.48,-1.02,9.290000000000001,0.0,0.002181661564992912,-0.003272492347489368,-45.25,-31.6875,-85.875
1762289127.8176162,-0.19667365013082402,2.980471025902371,-6.206864403620058,-0.45,-1.06,9.3,0.0,-0.001090830782496456,-0.003272492347489368,-44.5,-31.25,-85.5625
1762289128.0372305,-0.19667365013082402,2.980471025902371,-6.206864403620058,-0.46,-1.07,9.28,-0.001090830782496456,0.001090830782496456,-0.002181661564992912,-44.5,-30.875,-85.5625
1762289128.286621,-0.19667365013082402,2.980471025902371,-6.206864403620058,-0.51,-1.06,9.28,0.0,-0.002181661564992912,0.0,-44.5,-31.25,-85.5625
1762289128.5028675,-0.19667365013082402,2.980471025902371,-6.206864403620058,-0.45,-1.05,9.25,-0.001090830782496456,0.001090830782496456,-0.001090830782496456,-44.0625,-31.25,-86.25
1762289128.7725868,-0.19667365013082402,2.980471025902371,-6.206864403620058,-0.48,-1.0,9.27,-0.001090830782496456,0.003272492347489368,-0.002181661564992912,-44.5,-31.25,-85.875
1762289129.0216422,-0.19667365013082402,2.980471025902371,-6.206864403620058,-0.48,-1.06,9.28,-0.001090830782496456,-0.001090830782496456,-0.001090830782496456,-44.5,-31.25,-85.875
1762289129.2815664,-0.19667365013082402,2.980471025902371,-6.206864403620058,-0.45,-1.02,9.3,-0.001090830782496456,0.001090830782496456,-0.001090830782496456,-44.875,-30.875,-86.75
1762289129.520632,-0.19667365013082402,2.980471025902371,-6.206864403620058,-0.49,-1.01,9.28,-0.002181661564992912,-0.001090830782496456,0.0,-43.75,-31.25,-84.75
1762289129.743723,-0.19667365013082402,2.980471025902371,-6.206864403620058,-0.51,-0.99,9.27,0.0,0.003272492347489368,-0.003272492347489368,-44.5,-31.25,-85.875
1762289130.0059566,-0.19667365013082402,2.980471025902371,-6.206864403620058,-0.49,-1.02,9.32,-0.002181661564992912,0.002181661564992912,0.0,-44.0625,-31.25,-86.25
1762289130.2260008,-0.19667365013082402,2.980471025902371,-6.206864403620058,-0.46,-1.03,9.28,0.0,0.0,-0.002181661564992912,-44.875,-31.6875,-85.5625
1762289130.4846828,-0.19667365013082402,2.980471025902371,-6.206864403620058,-0.46,-1.01,9.3,0.001090830782496456,0.0,-0.002181661564992912,-44.5,-32.0625,-85.875
1762289130.7705514,-0.19667365013082402,2.980471025902371,-6.206864403620058,-0.48,-1.06,9.27,-0.001090830782496456,0.0,0.001090830782496456,-43.75,-31.25,-85.875
1762289131.1375513,-0.19667365013082402,2.980471025902371,-6.206864403620058,-0.48,-1.02,9.27,0.0,-0.003272492347489368,0.001090830782496456,-44.5,-31.25,-85.5
1762289131.359576,-0.19667365013082402,2.980471025902371,-6.206864403620058,-0.47000000000000003,-0.98,9.27,0.001090830782496456,-0.002181661564992912,-0.002181661564992912,-44.5,-31.6875,-86.25
1762289131.627525,-0.19667365013082402,2.980471025902371,-6.206864403620058,-0.48,-1.08,9.290000000000001,0.0,0.001090830782496456,0.0,-44.875,-30.875,-85.5
1762289131.8587203,-0.19667365013082402,2.980471025902371,-6.206864403620058,-0.48,-1.09,9.27,0.0,-0.001090830782496456,-0.001090830782496456,-45.25,-31.6875,-85.875
1762289132.1376803,-0.19667365013082402,2.980471025902371,-6.206864403620058,-0.46,-1.06,9.25,0.0,-0.004363323129985824,0.0,-44.875,-30.875,-86.75
1762289132.3615038,-0.19667365013082402,2.980471025902371,-6.206864403620058,-0.47000000000000003,-1.04,9.31,0.002181661564992912,0.0,-0.001090830782496456,-43.75,-30.875,-85.0625
1762289132.6321414,-0.19667365013082402,2.980471025902371,-6.206864403620058,-0.47000000000000003,-1.01,9.27,0.001090830782496456,0.002181661564992912,0.001090830782496456,-44.0625,-31.25,-86.6875
1762289132.8649602,-0.19667365013082402,2.980471025902371,-6.206864403620058,-0.5,-0.9500000000000001,9.27,0.001090830782496456,0.001090830782496456,-0.001090830782496456,-44.0625,-31.25,-85.0625
1762289133.1125314,-0.19667365013082402,2.980471025902371,-6.206864403620058,-0.49,-1.06,9.34,-0.001090830782496456,0.001090830782496456,-0.002181661564992912,-44.875,-31.25,-85.875
1762289133.3789997,-0.19667365013082402,2.980471025902371,-6.206864403620058,-0.49,-1.04,9.33,-0.001090830782496456,0.001090830782496456,-0.002181661564992912,-43.75,-31.6875,-86.75
1762289133.6254246,-0.19667365013082402,2.980471025902371,-6.206864403620058,-0.5,-1.06,9.290000000000001,-0.001090830782496456,0.0,0.0,-45.25,-31.6875,-86.6875
1762289133.9035547,-0.19667365013082402,2.980471025902371,-6.206864403620058,-0.47000000000000003,-1.04,9.290000000000001,-0.002181661564992912,0.001090830782496456,0.0,-44.0625,-31.25,-87.0625
1762289134.140634,-0.19667365013082402,2.980471025902371,-6.206864403620058,-0.49,-1.08,9.3,-0.001090830782496456,0.001090830782496456,-0.001090830782496456,-44.5,-31.6875,-86.25
1762289134.4192,-0.19667365013082402,2.980471025902371,-6.206864403620058,-0.49,-1.04,9.27,0.0,-0.002181661564992912,0.001090830782496456,-44.0625,-31.25,-87.0625
1762289134.6583433,-0.19667365013082402,2.980471025902371,-6.206864403620058,-0.46,-1.04,9.3,-0.001090830782496456,-0.002181661564992912,-0.001090830782496456,-44.875,-30.875,-85.5625
1762289134.93919,-0.19667365013082402,2.980471025902371,-6.206864403620058,-0.49,-1.04,9.27,0.001090830782496456,-0.001090830782496456,0.001090830782496456,-44.875,-30.5625,-84.75
1762289135.1727934,-0.19667365013082402,2.980471025902371,-6.206864403620058,-0.46,-1.03,9.27,-0.001090830782496456,-0.002181661564992912,-0.001090830782496456,-44.0625,-31.6875,-85.5625
1762289135.454982,-0.19667365013082402,2.980471025902371,-6.206864403620058,-0.49,-1.07,9.32,-0.001090830782496456,0.001090830782496456,-0.001090830782496456,-44.0625,-32.0625,-86.25
1762289135.7055762,-0.19667365013082402,2.980471025902371,-6.206864403620058,-0.47000000000000003,-1.01,9.25,0.0,0.0,0.001090830782496456,-44.875,-31.25,-84.75
1762289135.9902914,-0.19667365013082402,2.980471025902371,-6.206864403620058,-0.47000000000000003,-1.05,9.27,-0.001090830782496456,0.002181661564992912,-0.001090830782496456,-44.5,-30.5625,-85.0625
1762289136.2334816,-0.19667365013082402,2.980471025902371,-6.206864403620058,-0.45,-1.02,9.24,0.001090830782496456,-0.002181661564992912,0.002181661564992912,-44.875,-31.25,-85.5625
1762289136.51627,-0.19667365013082402,2.980471025902371,-6.206864403620058,-0.46,-1.01,9.31,-0.001090830782496456,0.0,-0.002181661564992912,-44.875,-30.5625,-85.0625
1762289136.7662675,-0.19667365013082402,2.980471025902371,-6.206864403620058,-0.5,-1.02,9.27,-0.001090830782496456,-0.001090830782496456,0.0,-44.0625,-30.875,-85.875
1762289137.0788426,-0.19667365013082402,2.980471025902371,-6.206864403620058,-0.49,-1.05,9.27,-0.002181661564992912,0.002181661564992912,-0.002181661564992912,-44.0625,-30.875,-85.5625
1762289137.3305283,-0.19667365013082402,2.980471025902371,-6.206864403620058,-0.47000000000000003,-1.0,9.28,-0.001090830782496456,-0.003272492347489368,0.002181661564992912,-44.5,-30.875,-85.0625
1762289137.6151185,-0.19667365013082402,2.980471025902371,-6.206864403620058,-0.46,-1.08,9.290000000000001,-0.002181661564992912,-0.001090830782496456,-0.001090830782496456,-45.25,-31.6875,-86.25
1762289137.8670645,-0.19667365013082402,2.980471025902371,-6.206864403620058,-0.47000000000000003,-1.02,9.28,-0.002181661564992912,0.002181661564992912,0.0,-44.5,-31.6875,-85.875
1762289138.1553576,-0.19667365013082402,2.980471025902371,-6.206864403620058,-0.46,-1.06,9.26,0.002181661564992912,0.002181661564992912,0.0,-44.0625,-31.25,-85.875
1762289138.4063168,-0.19667365013082402,2.980471025902371,-6.206864403620058,-0.47000000000000003,-1.0,9.26,0.001090830782496456,0.001090830782496456,0.001090830782496456,-44.5,-31.25,-85.5625
1762289138.6853747,-0.19667365013082402,2.980471025902371,-6.206864403620058,-0.48,-1.03,9.27,0.0,-0.001090830782496456,0.002181661564992912,-45.25,-31.25,-85.0625
1762289138.952782,-0.19667365013082402,2.980471025902371,-6.206864403620058,-0.48,-1.08,9.26,0.0,-0.001090830782496456,0.0,-44.875,-31.25,-85.875
1762289139.1945853,-0.19667365013082402,2.980471025902371,-6.206864403620058,-0.47000000000000003,-1.1,9.3,0.001090830782496456,0.003272492347489368,-0.001090830782496456,-44.875,-31.6875,-85.875
1762289139.4653075,-0.19667365013082402,2.980471025902371,-6.206864403620058,-0.44,-1.04,9.26,-0.001090830782496456,0.001090830782496456,-0.002181661564992912,-44.875,-31.6875,-86.25
1762289139.7306368,-0.19667365013082402,2.980471025902371,-6.206864403620058,-0.45,-1.05,9.31,0.001090830782496456,-0.002181661564992912,0.0,-44.875,-31.6875,-85.0625
1762289140.0075977,-0.19667365013082402,2.980471025902371,-6.206864403620058,-0.51,-1.05,9.28,-0.002181661564992912,0.003272492347489368,0.001090830782496456,-44.5,-31.6875,-85.0625
1762289140.2644148,-0.19667365013082402,2.980471025902371,-6.206864403620058,-0.46,-0.98,9.25,0.0,-0.002181661564992912,0.001090830782496456,-44.5,-30.5625,-84.75
1762289140.5551019,-0.19667365013082402,2.980471025902371,-6.206864403620058,-0.47000000000000003,-1.06,9.27,0.0,0.0,0.0,-43.75,-31.6875,-85.0625
1762289140.8139424,-0.22003700994078795,2.98019744830527,-7.107706613882267,-0.47000000000000003,-1.09,9.32,0.001090830782496456,-0.002181661564992912,0.0,-44.5,-30.875,-84.75
1762289141.1088824,-0.19667365013082402,2.980471025902371,-6.206864403620058,-0.48,-1.03,9.26,0.002181661564992912,0.0,0.0,-44.5,-32.375,-85.875
1762289141.363983,-0.19667365013082402,2.980471025902371,-6.206864403620058,-0.49,-1.01,9.3,-0.001090830782496456,-0.002181661564992912,-0.002181661564992912,-44.0625,-32.0625,-85.875
1762289141.6583047,-0.19667365013082402,2.980471025902371,-6.206864403620058,-0.46,-1.07,9.26,0.0,0.0,-0.001090830782496456,-43.75,-32.0625,-86.75
1762289141.9394376,-0.19667365013082402,2.980471025902371,-6.206864403620058,-0.5,-1.08,9.27,0.0,0.001090830782496456,0.0,-45.25,-30.875,-86.25
1762289142.231662,-0.19667365013082402,2.980471025902371,-6.206864403620058,-0.44,-1.02,9.28,0.0,0.003272492347489368,-0.001090830782496456,-44.875,-30.875,-86.75
1762289142.484327,-0.19667365013082402,2.980471025902371,-6.206864403620058,-0.5,-1.05,9.3,-0.002181661564992912,0.001090830782496456,0.0,-44.5,-31.25,-85.5625
1762289142.7793791,-0.19667365013082402,2.980471025902371,-6.206864403620058,-0.48,-1.01,9.28,0.0,0.001090830782496456,0.0,-44.5,-31.25,-87.5
1762289143.0488365,-0.19667365013082402,2.980471025902371,-6.206864403620058,-0.46,-1.07,9.27,-0.001090830782496456,-0.001090830782496456,-0.002181661564992912,-44.0625,-31.6875,-86.25
1762289143.3440115,-0.19667365013082402,2.980471025902371,-6.206864403620058,-0.48,-1.07,9.31,-0.001090830782496456,-0.001090830782496456,0.002181661564992912,-45.25,-31.6875,-85.5625
1762289143.6042187,-0.19667365013082402,2.980471025902371,-6.206864403620058,-0.48,-1.05,9.28,-0.001090830782496456,-0.002181661564992912,0.002181661564992912,-44.875,-30.875,-85.5625
1762289143.9044056,-0.19667365013082402,2.980471025902371,-6.206864403620058,-0.51,-1.06,9.25,0.0,-0.001090830782496456,0.0,-44.875,-30.875,-85.5625
1762289144.1880364,-0.19667365013082402,2.980471025902371,-6.206864403620058,-0.45,-1.05,9.290000000000001,0.002181661564992912,0.0,-0.001090830782496456,-43.375,-32.0625,-85.5625
1762289144.4660137,-0.19667365013082402,2.980471025902371,-6.206864403620058,-0.46,-1.05,9.24,0.001090830782496456,0.0,-0.001090830782496456,-43.75,-30.875,-85.875
1762289144.7323225,-0.19667365013082402,2.980471025902371,-6.206864403620058,-0.47000000000000003,-1.04,9.24,0.0,0.001090830782496456,-0.001090830782496456,-44.0625,-32.0625,-85.5625
1762289144.988776,-0.19667365013082402,2.980471025902371,-6.206864403620058,-0.48,-1.01,9.27,0.0,0.001090830782496456,0.0,-45.25,-31.25,-85.5625
1762289145.2160552,-0.19667365013082402,2.980471025902371,-6.206864403620058,-0.5,-1.01,9.26,-0.001090830782496456,-0.002181661564992912,0.0,-45.25,-30.5625,-85.875
1762289145.4848576,-0.19667365013082402,2.980471025902371,-6.206864403620058,-0.49,-1.05,9.32,0.001090830782496456,-0.001090830782496456,0.002181661564992912,-44.0625,-31.25,-85.875
1762289145.7178922,-0.19667365013082402,2.980471025902371,-6.206864403620058,-0.51,-1.03,9.32,0.0,0.001090830782496456,0.0,-45.25,-30.5625,-85.875
1762289145.999522,-0.19667365013082402,2.980471025902371,-6.206864403620058,-0.48,-1.05,9.3,0.0,0.0,-0.001090830782496456,-43.75,-31.6875,-86.6875
1762289146.2342012,-0.19667365013082402,2.980471025902371,-6.206864403620058,-0.51,-1.05,9.31,-0.002181661564992912,0.003272492347489368,-0.001090830782496456,-44.0625,-30.5625,-85.875
1762289146.5089808,-0.19667365013082402,2.980471025902371,-6.206864403620058,-0.48,-1.03,9.28,-0.001090830782496456,-0.002181661564992912,0.0,-44.5,-31.25,-84.75
1762289146.7496586,-0.19667365013082402,2.980471025902371,-6.206864403620058,-0.49,-1.07,9.28,0.001090830782496456,0.0,0.0,-44.5,-31.6875,-85.875
1762289147.0517795,-0.19667365013082402,2.980471025902371,-6.206864403620058,-0.49,-1.01,9.27,0.0,0.002181661564992912,-0.003272492347489368,-44.875,-30.875,-85.5625
1762289147.291751,-0.19667365013082402,2.980471025902371,-6.206864403620058,-0.47000000000000003,-1.01,9.28,0.002181661564992912,0.003272492347489368,-0.001090830782496456,-44.875,-30.875,-85.875
1762289147.556385,-0.19667365013082402,2.980471025902371,-6.206864403620058,-0.44,-1.02,9.28,0.0,0.001090830782496456,0.0,-43.75,-31.25,-86.6875
1762289147.8048644,-0.19667365013082402,2.980471025902371,-6.206864403620058,-0.47000000000000003,-1.04,9.27,0.0,0.002181661564992912,0.002181661564992912,-44.5,-31.25,-85.0625
1762289148.059368,-0.19667365013082402,2.980471025902371,-6.206864403620058,-0.46,-1.04,9.3,0.0,-0.001090830782496456,0.0,-45.25,-31.25,-85.875
1762289148.3231485,-0.19667365013082402,2.980471025902371,-6.206864403620058,-0.48,-1.05,9.290000000000001,-0.002181661564992912,0.002181661564992912,0.0,-44.0625,-30.875,-85.5625
1762289148.561477,-0.19667365013082402,2.980471025902371,-6.206864403620058,-0.5,-1.06,9.32,0.0,0.002181661564992912,0.0,-44.875,-30.875,-86.25
1762289148.8384411,-0.19667365013082402,2.980471025902371,-6.206864403620058,-0.48,-1.02,9.3,0.0,-0.001090830782496456,0.0,-44.875,-31.25,-86.25
1762289149.1037273,-0.19667365013082402,2.980471025902371,-6.206864403620058,-0.47000000000000003,-1.05,9.32,-0.001090830782496456,0.0,0.0,-44.875,-31.25,-86.6875
1762289149.3816288,-0.19667365013082402,2.980471025902371,-6.206864403620058,-0.45,-1.03,9.290000000000001,0.0,0.001090830782496456,0.0,-44.875,-30.875,-86.75
1762289149.6091025,-0.19667365013082402,2.980471025902371,-6.206864403620058,-0.47000000000000003,-1.0,9.290000000000001,0.0,0.002181661564992912,-0.001090830782496456,-44.0625,-30.875,-85.875
1762289149.891379,-0.19667365013082402,2.980471025902371,-6.206864403620058,-0.48,-0.99,9.34,0.0,0.0,0.001090830782496456,-45.25,-30.875,-86.25
1762289150.1436672,-0.19667365013082402,2.980471025902371,-6.206864403620058,-0.47000000000000003,-1.05,9.290000000000001,-0.001090830782496456,0.0,-0.001090830782496456,-43.75,-30.875,-85.875
1762289150.4366167,-0.19667365013082402,2.980471025902371,-6.206864403620058,-0.45,-0.99,9.19,0.0,-0.004363323129985824,-0.001090830782496456,-44.0625,-31.6875,-85.5
1762289150.6817021,-0.2044244607081639,2.9940739028811145,-6.207130087388289,-0.63,-1.07,9.19,-0.004363323129985824,0.008726646259971648,0.007635815477475192,-44.875,-32.0625,-86.25
1762289150.958718,-0.21141528412491142,2.9936951642211644,-6.207312397077088,-0.55,-1.06,9.28,-0.001090830782496456,0.0,-0.002181661564992912,-44.0625,-31.25,-84.75
1762289151.2000935,-0.21141528412491142,2.9936951642211644,-6.207312397077088,-0.46,-1.04,9.31,0.002181661564992912,-0.001090830782496456,0.001090830782496456,-45.5625,-31.25,-86.6875
1762289151.4766822,-0.21141528412491142,2.9936951642211644,-6.207312397077088,-0.39,-1.0,9.25,0.002181661564992912,-0.00545415391248228,-0.001090830782496456,-43.75,-30.875,-85.875
1762289151.7225971,-0.21141528412491142,2.9936951642211644,-6.207312397077088,-0.43,-0.99,9.25,0.002181661564992912,-0.002181661564992912,0.0,-44.875,-31.6875,-86.6875
1762289152.0266447,-0.21141528412491142,2.9936951642211644,-6.207312397077088,-0.48,-1.09,9.27,-0.001090830782496456,0.001090830782496456,0.001090830782496456,-44.875,-31.25,-85.0625
1762289152.264874,-0.21141528412491142,2.9936951642211644,-6.207312397077088,-0.47000000000000003,-1.03,9.32,-0.001090830782496456,0.002181661564992912,0.002181661564992912,-44.875,-31.25,-85.5
1762289152.509194,-0.21141528412491142,2.9936951642211644,-6.207312397077088,-0.48,-1.08,9.28,0.0,-0.002181661564992912,0.001090830782496456,-43.75,-32.0625,-87.0625
1762289152.7755187,-0.21141528412491142,2.9936951642211644,-6.207312397077088,-0.45,-1.03,9.31,-0.001090830782496456,-0.001090830782496456,-0.001090830782496456,-44.875,-31.6875,-87.0625
1762289153.0239778,-0.21141528412491142,2.9936951642211644,-6.207312397077088,-0.48,-1.02,9.31,-0.002181661564992912,0.002181661564992912,0.0,-44.5,-30.875,-85.875
1762289153.2992935,-0.21141528412491142,2.9936951642211644,-6.207312397077088,-0.47000000000000003,-0.98,9.28,0.0,0.0,0.0,-44.875,-31.25,-85.0625
1762289153.5306501,-0.21141528412491142,2.9936951642211644,-6.207312397077088,-0.45,-0.98,9.27,-0.002181661564992912,-0.001090830782496456,0.001090830782496456,-44.5,-30.875,-86.25
1762289153.8078947,-0.21141528412491142,2.9936951642211644,-6.207312397077088,-0.47000000000000003,-1.05,9.290000000000001,-0.002181661564992912,0.0,-0.001090830782496456,-44.0625,-31.25,-85.875
1762289154.0448923,-0.21141528412491142,2.9936951642211644,-6.207312397077088,-0.48,-1.01,9.24,-0.002181661564992912,0.001090830782496456,0.002181661564992912,-44.0625,-30.875,-85.875
1762289154.3187845,-0.21141528412491142,2.9936951642211644,-6.207312397077088,-0.45,-1.02,9.31,-0.001090830782496456,0.003272492347489368,0.001090830782496456,-44.875,-31.25,-85.875
1762289154.5535817,-0.21141528412491142,2.9936951642211644,-6.207312397077088,-0.47000000000000003,-0.99,9.27,-0.001090830782496456,0.0,0.0,-44.0625,-31.6875,-85.875
1762289154.9193532,-0.21141528412491142,2.9936951642211644,-6.207312397077088,-0.51,-1.03,9.290000000000001,-0.002181661564992912,0.0,-0.001090830782496456,-45.25,-31.25,-87.0625
1762289155.2668228,-0.21141528412491142,2.9936951642211644,-6.207312397077088,-0.46,-1.04,9.28,0.001090830782496456,0.0,-0.002181661564992912,-43.75,-30.875,-86.75
1762289155.5509908,-0.21141528412491142,2.9936951642211644,-6.207312397077088,-0.58,-1.05,9.28,0.0,0.00545415391248228,-0.001090830782496456,-44.0625,-31.6875,-86.25
1762289155.7948115,-0.21141528412491142,2.9936951642211644,-6.207312397077088,-0.47000000000000003,-1.03,9.27,0.0,0.001090830782496456,0.001090830782496456,-45.25,-31.25,-85.875
1762289156.078757,-0.21141528412491142,2.9936951642211644,-6.207312397077088,-0.45,-1.05,9.3,-0.002181661564992912,-0.002181661564992912,0.0,-44.5,-30.875,-86.25
1762289156.3294368,-0.21141528412491142,2.9936951642211644,-6.207312397077088,-0.49,-1.02,9.3,0.0,0.002181661564992912,-0.002181661564992912,-45.25,-30.875,-86.75
1762289156.618911,-0.21141528412491142,2.9936951642211644,-6.207312397077088,-0.47000000000000003,-1.04,9.27,0.0,-0.001090830782496456,-0.002181661564992912,-44.0625,-31.25,-86.25
1762289156.8807733,-0.21141528412491142,2.9936951642211644,-6.207312397077088,-0.49,-1.02,9.27,-0.001090830782496456,0.001090830782496456,0.001090830782496456,-44.875,-31.6875,-85.875
1762289157.1748893,-0.21141528412491142,2.9936951642211644,-6.207312397077088,-0.45,-1.02,9.28,0.0,-0.003272492347489368,0.001090830782496456,-44.5,-31.25,-85.5625
1762289157.4185042,-0.21141528412491142,2.9936951642211644,-6.207312397077088,-0.49,-1.06,9.33,0.0,0.0,0.001090830782496456,-44.5,-30.875,-85.875
1762289157.7047176,-0.21141528412491142,2.9936951642211644,-6.207312397077088,-0.45,-1.03,9.31,0.001090830782496456,0.0,0.0,-43.75,-31.25,-85.0625
1762289157.965833,-0.21141528412491142,2.9936951642211644,-6.207312397077088,-0.48,-1.01,9.290000000000001,0.0,0.001090830782496456,0.002181661564992912,-44.5,-31.6875,-85.5625
1762289158.2483654,-0.21141528412491142,2.9936951642211644,-6.207312397077088,-0.45,-1.03,9.27,0.001090830782496456,-0.002181661564992912,0.0,-45.25,-30.875,-86.375
1762289158.4885564,-0.21141528412491142,2.9936951642211644,-6.207312397077088,-0.48,-1.06,9.26,0.002181661564992912,0.002181661564992912,-0.001090830782496456,-44.875,-31.6875,-85.5625
1762289158.7794685,-0.21141528412491142,2.9936951642211644,-6.207312397077088,-0.47000000000000003,-1.01,9.290000000000001,0.001090830782496456,0.001090830782496456,-0.001090830782496456,-44.875,-31.25,-86.25
1762289159.0223851,-0.21141528412491142,2.9936951642211644,-6.207312397077088,-0.51,-1.04,9.33,0.002181661564992912,-0.001090830782496456,-0.001090830782496456,-44.5,-31.6875,-86.75
1762289159.3058763,-0.21141528412491142,2.9936951642211644,-6.207312397077088,-0.46,-1.01,9.28,0.002181661564992912,0.0,-0.004363323129985824,-44.5,-31.6875,-85.875
1762289159.5482423,-0.21141528412491142,2.9936951642211644,-6.207312397077088,-0.48,-1.06,9.34,0.001090830782496456,-0.001090830782496456,0.001090830782496456,-44.875,-31.6875,-85.875
1762289159.83809,-0.21141528412491142,2.9936951642211644,-6.207312397077088,-0.48,-0.99,9.28,0.0,0.0,0.0,-44.875,-31.25,-85.875
1762289160.1008132,-0.21141528412491142,2.9936951642211644,-6.207312397077088,-0.48,-1.03,9.26,0.0,0.0,-0.001090830782496456,-44.0625,-30.5625,-85.875
1762289160.4054282,-0.21141528412491142,2.9936951642211644,-6.207312397077088,-0.44,-1.01,9.27,0.001090830782496456,-0.002181661564992912,0.0,-44.875,-31.25,-85.875
1762289160.661778,-0.21141528412491142,2.9936951642211644,-6.207312397077088,-0.44,-1.02,9.27,-0.001090830782496456,0.0,0.0,-45.25,-31.6875,-85.0625
1762289160.963164,-0.21141528412491142,2.9936951642211644,-6.207312397077088,-0.46,-1.03,9.3,-0.001090830782496456,0.001090830782496456,-0.003272492347489368,-43.75,-31.6875,-86.75
1762289161.2139452,-0.21141528412491142,2.9936951642211644,-6.207312397077088,-0.49,-1.04,9.27,-0.001090830782496456,0.0,0.0,-44.0625,-31.25,-85.875
1762289161.5057082,-0.21141528412491142,2.9936951642211644,-6.207312397077088,-0.42,-1.01,9.31,0.0,-0.001090830782496456,0.0,-44.5,-31.25,-85.0625
1762289161.7653048,-0.21141528412491142,2.9936951642211644,-6.207312397077088,-0.5,-1.03,9.27,0.0,-0.001090830782496456,0.001090830782496456,-44.5,-30.875,-85.875
1762289162.079918,-0.21141528412491142,2.9936951642211644,-6.207312397077088,-0.45,-1.05,9.28,0.0,0.0,0.001090830782496456,-44.0625,-31.6875,-85.5625
1762289162.3346999,-0.21141528412491142,2.9936951642211644,-6.207312397077088,-0.51,-1.02,9.33,-0.001090830782496456,0.001090830782496456,0.0,-44.0625,-32.0625,-85.875
1762289162.6371968,-0.21141528412491142,2.9936951642211644,-6.207312397077088,-0.52,-1.05,9.31,-0.001090830782496456,0.00545415391248228,0.0,-45.25,-31.25,-86.75
1762289162.8945575,-0.21141528412491142,2.9936951642211644,-6.207312397077088,-0.46,-1.02,9.27,0.001090830782496456,-0.001090830782496456,0.0,-44.5,-30.5625,-87.0625
1762289163.216831,-0.21141528412491142,2.9936951642211644,-6.207312397077088,-0.5,-1.05,9.290000000000001,0.0,-0.001090830782496456,0.0,-44.5,-31.6875,-86.25
1762289163.4703305,-0.21141528412491142,2.9936951642211644,-6.207312397077088,-0.47000000000000003,-1.02,9.27,0.001090830782496456,0.001090830782496456,0.001090830782496456,-44.0625,-30.5625,-86.25
1762289163.7787452,-0.21141528412491142,2.9936951642211644,-6.207312397077088,-0.48,-1.03,9.24,-0.001090830782496456,0.001090830782496456,0.001090830782496456,-43.0,-31.6875,-85.875
1762289164.0359793,-0.21141528412491142,2.9936951642211644,-6.207312397077088,-0.47000000000000003,-1.02,9.3,0.0,0.001090830782496456,0.001090830782496456,-45.25,-30.5625,-85.5625
1762289164.3472445,-0.21141528412491142,2.9936951642211644,-6.207312397077088,-0.49,-1.06,9.28,0.0,-0.001090830782496456,0.003272492347489368,-44.5,-30.875,-85.5625
1762289164.602588,-0.21141528412491142,2.9936951642211644,-6.207312397077088,-0.5,-1.07,9.3,0.0,-0.002181661564992912,-0.001090830782496456,-44.5,-30.875,-85.0625
1762289164.92233,-0.21141528412491142,2.9936951642211644,-6.207312397077088,-0.47000000000000003,-1.07,9.28,-0.002181661564992912,-0.003272492347489368,-0.001090830782496456,-44.0625,-30.875,-86.75
1762289165.1919906,-0.21141528412491142,2.9936951642211644,-6.207312397077088,-0.47000000000000003,-1.03,9.28,-0.001090830782496456,-0.001090830782496456,0.001090830782496456,-44.0625,-30.875,-85.875
1762289165.513247,-0.21141528412491142,2.9936951642211644,-6.207312397077088,-0.47000000000000003,-1.02,9.32,0.001090830782496456,-0.001090830782496456,0.0,-44.875,-31.6875,-85.875
1762289165.7821348,-0.21141528412491142,2.9936951642211644,-6.207312397077088,-0.48,-1.04,9.27,0.0,-0.001090830782496456,0.001090830782496456,-44.5,-32.0625,-86.25
1762289166.085651,-0.21141528412491142,2.9936951642211644,-6.207312397077088,-0.48,-1.05,9.28,0.001090830782496456,0.0,-0.001090830782496456,-44.5,-30.875,-86.25
1762289166.3525383,-0.21141528412491142,2.9936951642211644,-6.207312397077088,-0.49,-1.01,9.3,0.0,0.001090830782496456,-0.001090830782496456,-45.25,-30.5625,-84.75
1762289166.6617272,-0.21141528412491142,2.9936951642211644,-6.207312397077088,-0.47000000000000003,-1.07,9.3,0.0,-0.002181661564992912,0.0,-44.875,-30.1875,-85.5625
1762289166.9702902,-0.21141528412491142,2.9936951642211644,-6.207312397077088,-0.49,-1.1300000000000001,9.290000000000001,0.002181661564992912,0.0,0.002181661564992912,-45.25,-31.25,-85.875
1762289167.2549636,-0.21141528412491142,2.9936951642211644,-6.207312397077088,-0.48,-1.04,9.3,-0.001090830782496456,0.002181661564992912,0.001090830782496456,-44.0625,-30.1875,-86.25
1762289167.5443518,-0.21141528412491142,2.9936951642211644,-6.207312397077088,-0.46,-1.03,9.28,-0.001090830782496456,-0.001090830782496456,0.0,-44.5,-31.25,-86.25
1762289167.8252728,-0.21141528412491142,2.9936951642211644,-6.207312397077088,-0.48,-1.06,9.27,-0.001090830782496456,0.0,0.0,-44.5,-32.0625,-86.25
1762289168.1413367,-0.21141528412491142,2.9936951642211644,-6.207312397077088,-0.45,-1.01,9.27,-0.001090830782496456,-0.001090830782496456,0.001090830782496456,-44.875,-30.875,-85.5625
1762289168.3709884,-0.21141528412491142,2.9936951642211644,-6.207312397077088,-0.48,-1.07,9.31,-0.002181661564992912,0.002181661564992912,0.002181661564992912,-45.25,-31.25,-86.75
1762289168.599827,-0.21141528412491142,2.9936951642211644,-6.207312397077088,-0.45,-1.08,9.26,0.0,-0.001090830782496456,-0.002181661564992912,-45.25,-30.875,-86.25
1762289168.863152,-0.21141528412491142,2.9936951642211644,-6.207312397077088,-0.47000000000000003,-1.01,9.290000000000001,0.0,-0.002181661564992912,0.0,-44.875,-30.1875,-85.875
1762289169.1231346,-0.21141528412491142,2.9936951642211644,-6.207312397077088,-0.52,-1.02,9.31,0.001090830782496456,0.001090830782496456,0.0,-44.875,-31.25,-85.875
1762289169.3932493,-0.21141528412491142,2.9936951642211644,-6.207312397077088,-0.47000000000000003,-1.04,9.31,-0.001090830782496456,-0.001090830782496456,0.003272492347489368,-44.875,-31.25,-86.6875
1762289169.621113,-0.21141528412491142,2.9936951642211644,-6.207312397077088,-0.49,-1.02,9.27,-0.001090830782496456,-0.003272492347489368,0.0,-44.0625,-31.6875,-85.5
1762289169.8951008,-0.21141528412491142,2.9936951642211644,-6.207312397077088,-0.45,-1.0,9.290000000000001,0.0,-0.001090830782496456,0.001090830782496456,-44.875,-31.6875,-84.75
1762289170.1252224,-0.21141528412491142,2.9936951642211644,-6.207312397077088,-0.44,-1.02,9.290000000000001,-0.001090830782496456,0.001090830782496456,-0.003272492347489368,-44.5,-30.5625,-87.0625
1762289170.3922122,-0.21141528412491142,2.9936951642211644,-6.207312397077088,-0.48,-1.0,9.28,0.001090830782496456,0.0,-0.001090830782496456,-45.25,-31.25,-86.25
1762289170.6298742,-0.21141528412491142,2.9936951642211644,-6.207312397077088,-0.48,-1.02,9.27,0.0,-0.001090830782496456,-0.001090830782496456,-44.875,-30.875,-85.0625
1762289170.9142668,-0.21141528412491142,2.9936951642211644,-6.207312397077088,-0.48,-1.04,9.27,-0.002181661564992912,0.002181661564992912,0.0,-44.875,-31.6875,-86.75
1762289171.1536999,-0.21141528412491142,2.9936951642211644,-6.207312397077088,-0.48,-1.03,9.290000000000001,0.001090830782496456,0.0,0.001090830782496456,-44.0625,-30.875,-85.0625
1762289171.393265,-0.21141528412491142,2.9936951642211644,-6.207312397077088,-0.48,-1.1,9.3,0.001090830782496456,-0.002181661564992912,0.0,-45.25,-31.6875,-86.6875
1762289171.6395955,-0.21141528412491142,2.9936951642211644,-6.207312397077088,-0.5,-1.0,9.31,0.001090830782496456,0.003272492347489368,0.0,-44.5,-30.5625,-85.5625
1762289171.8482676,-0.21141528412491142,2.9936951642211644,-6.207312397077088,-0.46,-1.02,9.26,0.0,0.003272492347489368,0.001090830782496456,-44.0625,-31.6875,-85.875
1762289172.1157918,-0.21141528412491142,2.9936951642211644,-6.207312397077088,-0.47000000000000003,-1.02,9.33,0.0,0.002181661564992912,-0.001090830782496456,-44.5,-30.875,-85.875
1762289172.324873,-0.21141528412491142,2.9936951642211644,-6.207312397077088,-0.48,-1.03,9.290000000000001,0.0,0.001090830782496456,0.0,-45.25,-32.0625,-85.5625
1762289172.5646634,-0.21141528412491142,2.9936951642211644,-6.207312397077088,-0.49,-1.03,9.290000000000001,0.0,-0.001090830782496456,0.0,-45.25,-30.875,-86.75
1762289172.7815824,-0.21141528412491142,2.9936951642211644,-6.207312397077088,-0.45,-1.08,9.27,0.0,0.0,-0.002181661564992912,-44.0625,-30.875,-86.75
1762289172.992166,-0.21141528412491142,2.9936951642211644,-6.207312397077088,-0.47000000000000003,-1.06,9.24,0.001090830782496456,0.0,0.0,-45.5625,-30.875,-87.0625
1762289173.2370677,-0.21141528412491142,2.9936951642211644,-6.207312397077088,-0.46,-1.04,9.290000000000001,0.001090830782496456,-0.001090830782496456,-0.001090830782496456,-44.5,-30.1875,-85.0625
1762289173.4397151,-0.21141528412491142,2.9936951642211644,-6.207312397077088,-0.47000000000000003,-1.06,9.25,0.001090830782496456,-0.001090830782496456,0.0,-44.0625,-30.5625,-85.0625
1762289173.6775138,-0.21141528412491142,2.9936951642211644,-6.207312397077088,-0.45,-1.01,9.290000000000001,-0.002181661564992912,-0.002181661564992912,-0.001090830782496456,-44.5,-31.25,-85.0625
1762289173.891037,-0.21141528412491142,2.9936951642211644,-6.207312397077088,-0.47000000000000003,-1.07,9.25,-0.002181661564992912,0.002181661564992912,0.0,-44.5,-31.25,-86.25
1762289174.1114674,-0.21141528412491142,2.9936951642211644,-6.207312397077088,-0.5,-1.07,9.27,-0.001090830782496456,0.003272492347489368,-0.001090830782496456,-44.0625,-32.0625,-86.75
1762289174.362321,-0.21141528412491142,2.9936951642211644,-6.207312397077088,-0.48,-1.07,9.27,-0.002181661564992912,-0.002181661564992912,0.002181661564992912,-44.5,-31.6875,-85.5625
1762289174.5641174,-0.21141528412491142,2.9936951642211644,-6.207312397077088,-0.47000000000000003,-1.04,9.27,0.0,-0.001090830782496456,0.002181661564992912,-44.5,-31.25,-86.25
1762289174.8167706,-0.23488833255407357,2.993312150991659,-7.108165355751323,-0.49,-1.05,9.23,0.001090830782496456,-0.002181661564992912,-0.001090830782496456,-45.25,-32.0625,-87.0625
1762289175.055117,-0.21141528412491142,2.9936951642211644,-6.207312397077088,-0.5,-1.03,9.290000000000001,0.0,0.0,0.0,-44.5,-31.6875,-85.875
1762289175.2612152,-0.21141528412491142,2.9936951642211644,-6.207312397077088,-0.49,-1.03,9.31,-0.002181661564992912,-0.001090830782496456,0.001090830782496456,-44.875,-32.0625,-86.75
1762289175.505941,-0.21141528412491142,2.9936951642211644,-6.207312397077088,-0.48,-1.07,9.290000000000001,-0.001090830782496456,0.001090830782496456,0.002181661564992912,-45.25,-31.6875,-86.25
1762289175.7198522,-0.21141528412491142,2.9936951642211644,-6.207312397077088,-0.47000000000000003,-1.03,9.26,0.0,-0.002181661564992912,0.0,-44.875,-31.25,-86.25
1762289175.9649744,-0.21141528412491142,2.9936951642211644,-6.207312397077088,-0.51,-1.04,9.26,-0.001090830782496456,-0.002181661564992912,0.001090830782496456,-45.25,-31.6875,-86.75
1762289176.1664052,-0.21141528412491142,2.9936951642211644,-6.207312397077088,-0.48,-1.05,9.31,0.001090830782496456,-0.001090830782496456,0.0,-44.875,-31.6875,-85.5625
1762289176.3738256,-0.21141528412491142,2.9936951642211644,-6.207312397077088,-0.44,-1.0,9.290000000000001,-0.001090830782496456,0.001090830782496456,-0.001090830782496456,-44.875,-31.25,-86.6875
1762289176.6081789,-0.21141528412491142,2.9936951642211644,-6.207312397077088,-0.47000000000000003,-1.04,9.24,0.0,0.002181661564992912,-0.001090830782496456,-44.0625,-30.875,-85.5625
1762289176.8146763,-0.21141528412491142,2.9936951642211644,-6.207312397077088,-0.5,-1.03,9.290000000000001,0.0,-0.001090830782496456,0.001090830782496456,-44.5,-30.875,-85.875
1762289177.096522,-0.21141528412491142,2.9936951642211644,-6.207312397077088,-0.46,-1.03,9.28,-0.001090830782496456,-0.003272492347489368,0.0,-45.25,-31.25,-85.875
1762289177.3057446,-0.21141528412491142,2.9936951642211644,-6.207312397077088,-0.46,-1.05,9.26,-0.001090830782496456,-0.001090830782496456,0.001090830782496456,-44.875,-31.25,-85.875
1762289177.5470314,-0.21141528412491142,2.9936951642211644,-6.207312397077088,-0.47000000000000003,-1.02,9.3,-0.001090830782496456,-0.002181661564992912,0.001090830782496456,-44.5,-30.5625,-85.5625
1762289177.7592862,-0.21141528412491142,2.9936951642211644,-6.207312397077088,-0.46,-1.04,9.28,0.001090830782496456,-0.001090830782496456,0.001090830782496456,-44.875,-32.0625,-85.875
1762289177.9729915,-0.21141528412491142,2.9936951642211644,-6.207312397077088,-0.47000000000000003,-1.04,9.27,-0.002181661564992912,-0.002181661564992912,-0.002181661564992912,-45.5625,-30.875,-85.0625
1762289178.2231286,-0.21141528412491142,2.9936951642211644,-6.207312397077088,-0.48,-1.01,9.25,0.0,0.0,0.001090830782496456,-44.875,-31.25,-86.25
1762289178.4266083,-0.21141528412491142,2.9936951642211644,-6.207312397077088,-0.49,-1.02,9.290000000000001,0.0,0.0,-0.001090830782496456,-44.875,-30.875,-86.25
1762289178.7425337,-0.21141528412491142,2.9936951642211644,-6.207312397077088,-0.5,-1.07,9.31,-0.001090830782496456,-0.001090830782496456,-0.001090830782496456,-44.5,-31.6875,-86.25
1762289179.0886903,-0.21141528412491142,2.9936951642211644,-6.207312397077088,-0.45,-1.0,9.290000000000001,0.0,-0.001090830782496456,0.001090830782496456,-45.25,-31.6875,-86.25
1762289179.347166,-0.21141528412491142,2.9936951642211644,-6.207312397077088,-0.46,-1.05,9.31,0.0,0.002181661564992912,0.001090830782496456,-44.5,-32.0625,-86.75
1762289179.5510278,-0.21141528412491142,2.9936951642211644,-6.207312397077088,-0.48,-1.05,9.26,0.0,0.0,0.0,-45.5625,-31.25,-85.5625
1762289179.7982454,-0.21141528412491142,2.9936951642211644,-6.207312397077088,-0.45,-1.02,9.3,0.0,-0.001090830782496456,0.0,-44.5,-31.25,-86.25
1762289180.014944,-0.21141528412491142,2.9936951642211644,-6.207312397077088,-0.48,-1.01,9.290000000000001,0.004363323129985824,0.001090830782496456,-0.001090830782496456,-43.375,-31.25,-85.875
1762289180.2155323,-0.21141528412491142,2.9936951642211644,-6.207312397077088,-0.47000000000000003,-1.01,9.26,-0.001090830782496456,0.002181661564992912,0.0,-44.0625,-31.25,-85.875
1762289180.4772885,-0.21141528412491142,2.9936951642211644,-6.207312397077088,-0.47000000000000003,-1.03,9.290000000000001,0.001090830782496456,-0.001090830782496456,-0.001090830782496456,-44.0625,-31.25,-86.25
1762289180.6960874,-0.21141528412491142,2.9936951642211644,-6.207312397077088,-0.54,-1.06,9.32,-0.001090830782496456,0.0,-0.001090830782496456,-44.5,-30.5625,-85.0625
1762289180.947551,-0.21141528412491142,2.9936951642211644,-6.207312397077088,-0.46,-1.05,9.27,0.0,0.001090830782496456,-0.002181661564992912,-44.5,-31.25,-86.25
1762289181.1499174,-0.21141528412491142,2.9936951642211644,-6.207312397077088,-0.49,-1.02,9.28,0.0,0.001090830782496456,0.0,-44.875,-31.25,-85.5625
1762289181.3571837,-0.21141528412491142,2.9936951642211644,-6.207312397077088,-0.46,-1.01,9.27,-0.001090830782496456,0.001090830782496456,-0.001090830782496456,-44.0625,-31.6875,-85.875
1762289181.613323,-0.21141528412491142,2.9936951642211644,-6.207312397077088,-0.48,-1.07,9.26,-0.002181661564992912,0.0,0.0,-44.5,-31.25,-85.875
1762289181.83213,-0.21141528412491142,2.9936951642211644,-6.207312397077088,-0.44,-1.01,9.28,-0.001090830782496456,0.002181661564992912,0.0,-45.5625,-31.25,-85.0625
1762289182.109032,-0.21141528412491142,2.9936951642211644,-6.207312397077088,-0.48,-1.04,9.290000000000001,-0.003272492347489368,0.001090830782496456,0.001090830782496456,-44.875,-31.25,-85.0625
1762289182.3218944,-0.21141528412491142,2.9936951642211644,-6.207312397077088,-0.49,-1.07,9.27,0.001090830782496456,0.002181661564992912,0.003272492347489368,-44.5,-31.6875,-85.875
1762289182.576769,-0.21141528412491142,2.9936951642211644,-6.207312397077088,-0.45,-1.01,9.25,0.0,0.0,-0.001090830782496456,-43.75,-30.875,-87.0625
1762289182.7975912,-0.21141528412491142,2.9936951642211644,-6.207312397077088,-0.45,-1.0,9.290000000000001,0.0,0.0,0.001090830782496456,-44.5,-31.25,-86.25
1762289183.013833,-0.21141528412491142,2.9936951642211644,-6.207312397077088,-0.49,-1.0,9.3,-0.001090830782496456,-0.001090830782496456,-0.001090830782496456,-43.375,-31.25,-85.875
1762289183.2573607,-0.21141528412491142,2.9936951642211644,-6.207312397077088,-0.45,-1.05,9.28,0.0,-0.002181661564992912,-0.001090830782496456,-44.0625,-32.0625,1962.125
1762289183.476812,-0.21141528412491142,2.9936951642211644,-6.207312397077088,-0.48,-1.04,9.290000000000001,0.0,0.001090830782496456,-0.001090830782496456,-44.875,-30.875,-86.75
1762289183.7335696,-0.21141528412491142,2.9936951642211644,-6.207312397077088,-0.47000000000000003,-1.05,9.28,-0.001090830782496456,-0.002181661564992912,-0.001090830782496456,-44.5,-31.25,-86.25
1762289183.9419062,-0.21141528412491142,2.9936951642211644,-6.207312397077088,-0.47000000000000003,-1.03,9.3,-0.002181661564992912,-0.002181661564992912,0.0,-44.875,-31.25,-85.5625
1762289184.1854594,-0.21141528412491142,2.9936951642211644,-6.207312397077088,-0.45,-1.01,9.290000000000001,-0.001090830782496456,0.001090830782496456,-0.001090830782496456,-44.875,-31.25,-85.875
1762289184.4040954,-0.21141528412491142,2.9936951642211644,-6.207312397077088,-0.47000000000000003,-1.04,9.290000000000001,0.0,-0.002181661564992912,0.001090830782496456,-45.5625,-31.25,-85.875
1762289184.6146083,-0.21141528412491142,2.9936951642211644,-6.207312397077088,-0.46,-1.01,9.28,0.0,0.0,0.001090830782496456,-44.0625,-31.6875,-87.0625
1762289184.8743384,-0.21141528412491142,2.9936951642211644,-6.207312397077088,-0.5,-1.07,9.290000000000001,0.0,0.0,-0.002181661564992912,-45.25,-30.5625,-85.5625
1762289185.0947986,-0.21141528412491142,2.9936951642211644,-6.207312397077088,-0.5,-1.05,9.11,-0.002181661564992912,0.00545415391248228,0.001090830782496456,-43.75,-30.875,-86.75
1762289185.3560905,-0.21217547890896654,3.007676948779349,-6.207397847369484,-0.46,-0.93,9.16,-0.003272492347489368,0.001090830782496456,-0.002181661564992912,-43.375,-31.25,-86.75
1762289185.5802221,-0.21217547890896654,3.007676948779349,-6.207397847369484,-0.42,-0.99,9.26,-0.001090830782496456,0.001090830782496456,-0.002181661564992912,-45.25,-31.6875,-85.875
1762289185.8062215,-0.8883845164413094,2.527293628483764,-6.592631920600568,0.96,-2.91,9.06,-0.0916297857297023,-0.13526301702956053,-0.10253809355466686,-26.25,-19.0625,-51.25
1762289186.0547981,-6.895083041747129,2.04791884687787,-7.135615049640855,-0.07,-1.96,8.65,0.0,0.11999138607461016,-0.29670597283903605,-27.875,-17.6875,-52.1875
1762289186.276321,-14.340158200001758,1.9519461635644642,-7.272018404885533,-1.12,-0.87,9.99,-0.039269908169872414,0.02181661564992912,-0.8584838258247108,-24.5,-12.75,-50.875
1762289186.6302843,-37.25959249153086,-0.1368532154322484,-6.34150587379095,2.48,1.5,13.08,0.18544123302439752,-0.12871803233458182,-1.2064588454410803,-9.25,0.5625,-47.75
1762289186.8704226,-52.42696224479994,-1.9047992673477223,-6.098927020315817,-0.19,-1.0,9.84,0.01090830782496456,-0.05235987755982989,-0.9653852425093635,-6.875,6.75,-48.375
1762289187.149386,-65.17512555043166,-2.8866583735893494,-5.449037191258196,-0.5700000000000001,-0.96,8.620000000000001,-0.020725784867432664,0.04145156973486533,-0.8792096106921435,-8.6875,8.375,-48.75
1762289187.383987,-77.78220832290106,-3.4538906314765216,-4.80442166375641,-0.04,-1.74,9.11,-0.02945243112740431,0.00545415391248228,-1.1824605682261582,-9.0,7.5625,-48.5
1762289187.6573493,-89.23919111717389,-3.0485674761784716,-3.7167109853336844,-0.18,-1.1500000000000001,9.5,-0.019634954084936207,0.008726646259971648,-0.1505346479845109,-10.0,5.6875,-47.6875
1762289187.8859024,-89.10100398245251,-1.6391881094266134,-4.297254100567847,-0.56,-0.93,9.25,0.001090830782496456,-0.002181661564992912,0.006544984694978736,-9.875,5.75,-47.25
1762289188.160566,-89.07429651296351,0.36648654426087496,-4.924510095410719,-0.54,-0.9500000000000001,9.35,0.0,-0.003272492347489368,0.001090830782496456,-10.1875,5.375,-49.25
1762289188.3837624,-89.08036108864572,1.0465853337812616,-5.152101573133445,-0.53,-0.9400000000000001,9.33,0.0,0.001090830782496456,-0.001090830782496456,-9.875,5.375,-48.5
1762289188.604966,-89.08363693222034,1.4832003544551322,-5.297275894053448,-0.48,-0.93,9.31,-0.001090830782496456,0.0,0.001090830782496456,-8.375,5.0,-48.5
1762289188.8649006,-89.08733817869123,1.7712955445280436,-5.394372050313535,-0.46,-0.93,9.23,0.001090830782496456,-0.002181661564992912,0.001090830782496456,-9.1875,5.375,-48.0625
1762289189.087558,-89.08452808973735,1.9698918956598641,-5.462116533175906,-0.48,-0.92,9.24,0.002181661564992912,0.001090830782496456,0.002181661564992912,-10.5625,4.6875,-48.5
1762289189.3767405,-89.08891784222475,2.1287155964255535,-5.520511771446323,-0.52,-0.97,9.33,0.0,0.003272492347489368,0.0,-9.5,5.0,-48.5
1762289189.598748,-89.08900423372376,2.2379460283122405,-5.55933660063537,-0.53,-0.93,9.290000000000001,0.0,0.001090830782496456,0.0,-9.1875,5.375,-49.25
1762289189.8746383,-89.08791786619808,2.3323067153789876,-5.593284973914428,-0.47000000000000003,-0.93,9.290000000000001,0.0,0.002181661564992912,-0.001090830782496456,-9.1875,5.375,-49.25
1762289190.1062117,-89.09271097683151,2.381909819473762,-5.6129052770829855,-0.51,-0.9500000000000001,9.31,0.001090830782496456,-0.001090830782496456,-0.001090830782496456,-9.1875,5.375,-57.25
1762289190.376844,-89.09271097683151,2.381909819473762,-5.6129052770829855,-0.46,-0.9400000000000001,9.27,-0.001090830782496456,-0.001090830782496456,0.002181661564992912,-9.1875,5.75,-49.6875
1762289190.6004043,-89.09271097683151,2.381909819473762,-5.6129052770829855,-0.51,-0.96,9.290000000000001,0.0,0.0,0.001090830782496456,-9.1875,5.375,-48.5
1762289190.8341084,-89.09271097683151,2.381909819473762,-5.6129052770829855,-0.47000000000000003,-0.91,9.27,-0.001090830782496456,0.0,-0.001090830782496456,-8.75,5.75,-50.0625
1762289191.081514,-89.09271097683151,2.381909819473762,-5.6129052770829855,-0.54,-0.96,9.34,0.0,-0.001090830782496456,0.001090830782496456,-8.75,6.1875,-49.25
1762289191.3004405,-89.09271097683151,2.381909819473762,-5.6129052770829855,-0.45,-0.9,9.3,-0.001090830782496456,0.0,0.0,-8.375,5.0,-49.25
1762289191.5588045,-89.08975211161889,2.456413760913197,-5.637033853589959,-0.37,-0.9400000000000001,9.32,-0.002181661564992912,0.002181661564992912,0.001090830782496456,-8.0625,4.25,-50.0625
1762289191.7834957,-89.095346075094,2.515906068129016,-5.6566200496412185,-0.52,-0.9,9.33,0.0,0.001090830782496456,-0.004363323129985824,-9.1875,5.375,-48.5
1762289192.0690656,-89.089708309517,2.555765958597942,-5.675953098982258,-0.55,-0.96,9.27,0.001090830782496456,0.001090830782496456,0.0,-9.5625,5.375,-48.875
1762289192.2924235,-89.0932606825513,2.590500903597759,-5.69069568683621,-0.51,-0.9400000000000001,9.27,-0.001090830782496456,-0.002181661564992912,-0.001090830782496456,-9.5625,5.75,-49.25
1762289192.5509908,-89.09683429458875,2.6252368013493403,-5.705441536524012,-0.51,-0.9500000000000001,9.28,0.0,0.001090830782496456,0.001090830782496456,-8.75,5.375,-48.875
1762289192.7737052,-89.09755382724289,2.6302246691061755,-5.710387162791237,-0.46,-0.96,9.290000000000001,0.001090830782496456,0.001090830782496456,-0.002181661564992912,-8.75,5.75,-49.25
1762289193.0016184,-89.09755382724289,2.6302246691061755,-5.710387162791237,-0.5,-0.9500000000000001,9.32,0.0,-0.002181661564992912,-0.001090830782496456,-9.1875,5.375,-49.6875
1762289193.2631402,-89.09755382724289,2.6302246691061755,-5.710387162791237,-0.48,-0.96,9.28,0.0,-0.002181661564992912,0.001090830782496456,-9.1875,5.75,-48.875
1762289193.4850688,-1.2569623501110672,4.158101321217081,-1.675828978155597,-0.48,-0.9500000000000001,9.33,0.0,-0.001090830782496456,0.0,-8.0625,5.0,-48.875
1762289193.748901,-89.09755382724289,2.6302246691061755,-5.710387162791237,-0.53,-0.96,9.24,-0.001090830782496456,0.0,-0.001090830782496456,-8.75,6.1875,-49.6875
1762289193.9682484,-89.09755382724289,2.6302246691061755,-5.710387162791237,-0.48,-0.9500000000000001,9.27,0.0,0.0,0.002181661564992912,-9.1875,5.375,-48.875
1762289194.2366316,-89.09755382724289,2.6302246691061755,-5.710387162791237,-0.49,-0.96,9.290000000000001,-0.001090830782496456,0.0,0.002181661564992912,-8.75,5.75,-48.875
1762289194.4608207,-89.09755382724289,2.6302246691061755,-5.710387162791237,-0.46,-0.93,9.25,-0.001090830782496456,-0.003272492347489368,0.002181661564992912,-8.75,5.375,-48.0625
1762289194.726536,-89.09755382724289,2.6302246691061755,-5.710387162791237,-0.5,-0.9400000000000001,9.290000000000001,0.0,-0.001090830782496456,0.001090830782496456,-8.375,5.75,-48.5
1762289194.959178,-89.09755382724289,2.6302246691061755,-5.710387162791237,-0.47000000000000003,-0.93,9.26,0.001090830782496456,-0.002181661564992912,-0.001090830782496456,-8.75,4.6875,-48.5
1762289195.1769595,-89.09755382724289,2.6302246691061755,-5.710387162791237,-0.48,-0.9500000000000001,9.28,-0.001090830782496456,0.003272492347489368,-0.001090830782496456,-10.1875,5.375,-50.0
1762289195.4394274,-89.09755382724289,2.6302246691061755,-5.710387162791237,-0.52,-0.97,9.290000000000001,-0.001090830782496456,0.0,0.0,-9.1875,5.375,-49.25
1762289195.6606574,-89.09755382724289,2.6302246691061755,-5.710387162791237,-0.5,-0.98,9.3,0.0,0.002181661564992912,-0.001090830782496456,-9.875,5.75,-49.25
1762289195.9236212,-89.09755382724289,2.6302246691061755,-5.710387162791237,-0.49,-0.96,9.28,0.0,0.001090830782496456,-0.002181661564992912,-10.1875,5.75,-48.875
1762289196.1463985,-89.09755382724289,2.6302246691061755,-5.710387162791237,-0.51,-0.9500000000000001,9.26,-0.001090830782496456,-0.001090830782496456,-0.001090830782496456,-8.75,5.75,-48.5
1762289196.3687558,-89.09755382724289,2.6302246691061755,-5.710387162791237,-0.47000000000000003,-0.96,9.26,-0.001090830782496456,-0.001090830782496456,0.0,-8.0625,5.75,-49.25
1762289196.6184993,-89.09755382724289,2.6302246691061755,-5.710387162791237,-0.5,-0.9500000000000001,9.25,-0.001090830782496456,0.0,0.0,-9.5625,6.1875,-48.0625
1762289196.8411074,-89.09755382724289,2.6302246691061755,-5.710387162791237,-0.46,-0.96,9.290000000000001,0.0,-0.002181661564992912,0.0,-9.875,5.375,-48.875
1762289197.1233513,-89.09755382724289,2.6302246691061755,-5.710387162791237,-0.48,-0.9400000000000001,9.3,-0.001090830782496456,0.002181661564992912,0.001090830782496456,-9.1875,5.75,-48.5
1762289197.3481557,-89.09755382724289,2.6302246691061755,-5.710387162791237,-0.45,-0.9400000000000001,9.290000000000001,0.0,-0.001090830782496456,0.0,-10.1875,4.6875,-49.6875
1762289197.6153042,-89.09755382724289,2.6302246691061755,-5.710387162791237,-0.46,-0.93,9.26,-0.002181661564992912,-0.001090830782496456,0.0,-8.75,5.375,-49.25
1762289197.8410225,-89.09755382724289,2.6302246691061755,-5.710387162791237,-0.49,-0.9500000000000001,9.31,-0.001090830782496456,0.002181661564992912,-0.001090830782496456,-9.875,5.75,-49.6875
1762289198.1074824,-89.09755382724289,2.6302246691061755,-5.710387162791237,-0.49,-0.9500000000000001,9.26,0.0,-0.002181661564992912,0.0,-8.75,5.75,-48.875
1762289198.33322,-89.09755382724289,2.6302246691061755,-5.710387162791237,-0.44,-0.9400000000000001,9.290000000000001,0.0,0.003272492347489368,0.0,-8.75,5.375,-47.25
1762289198.5593588,-89.09755382724289,2.6302246691061755,-5.710387162791237,-0.5,-0.96,9.28,0.0,-0.002181661564992912,-0.002181661564992912,-9.1875,5.75,-49.6875
1762289198.8214905,-89.09755382724289,2.6302246691061755,-5.710387162791237,-0.48,-0.98,9.27,0.0,-0.001090830782496456,-0.001090830782496456,-9.1875,4.6875,-49.25
1762289199.050449,-89.09755382724289,2.6302246691061755,-5.710387162791237,-0.45,-0.96,9.27,-0.001090830782496456,-0.001090830782496456,-0.001090830782496456,-8.0625,5.75,-47.6875
1762289199.313927,-89.09755382724289,2.6302246691061755,-5.710387162791237,-0.48,-0.93,9.290000000000001,0.0,-0.001090830782496456,-0.001090830782496456,-8.375,5.0,-50.0
1762289199.534793,-89.09755382724289,2.6302246691061755,-5.710387162791237,-0.47000000000000003,-0.9500000000000001,9.3,0.0,-0.001090830782496456,0.001090830782496456,-8.0625,5.75,-49.25
1762289199.7981045,-89.09755382724289,2.6302246691061755,-5.710387162791237,-0.5,-0.9500000000000001,9.26,-0.002181661564992912,0.0,0.0,-9.1875,5.375,-48.0625
1762289200.0227904,-89.09755382724289,2.6302246691061755,-5.710387162791237,-0.52,-0.9500000000000001,9.3,-0.001090830782496456,0.001090830782496456,-0.003272492347489368,-8.75,5.0,-48.0625
1762289200.2440064,-89.09755382724289,2.6302246691061755,-5.710387162791237,-0.46,-0.9400000000000001,9.24,0.001090830782496456,-0.001090830782496456,-0.002181661564992912,-8.75,5.75,-49.25
1762289200.5307028,-89.09755382724289,2.6302246691061755,-5.710387162791237,-0.46,-0.9500000000000001,9.27,0.0,-0.001090830782496456,-0.001090830782496456,-8.75,5.375,-48.875
1762289200.7597978,-89.09755382724289,2.6302246691061755,-5.710387162791237,-0.49,-0.97,9.3,0.0,-0.003272492347489368,0.0,-9.1875,5.75,-48.5
1762289201.0235152,-89.09755382724289,2.6302246691061755,-5.710387162791237,-0.52,-0.9400000000000001,9.3,0.0,0.0,0.002181661564992912,-9.5625,6.1875,-49.25
1762289201.244976,-89.09755382724289,2.6302246691061755,-5.710387162791237,-0.49,-0.9500000000000001,9.32,0.0,0.0,-0.001090830782496456,-9.1875,5.375,-48.875
1762289201.508807,-89.09755382724289,2.6302246691061755,-5.710387162791237,-0.49,-0.97,9.33,-0.001090830782496456,0.002181661564992912,0.0,-8.75,6.1875,-49.25
1762289201.7325215,-89.09755382724289,2.6302246691061755,-5.710387162791237,-0.52,-0.9500000000000001,9.33,-0.001090830782496456,-0.004363323129985824,0.003272492347489368,-9.1875,6.5,-48.875
1762289202.126192,-89.09755382724289,2.6302246691061755,-5.710387162791237,-0.48,-0.9500000000000001,9.31,-0.001090830782496456,-0.004363323129985824,0.003272492347489368,-8.375,6.5,-49.25
1762289202.4353197,-89.09755382724289,2.6302246691061755,-5.710387162791237,-0.53,-0.9500000000000001,9.3,0.0,-0.002181661564992912,0.0,-9.1875,5.75,-48.5
1762289202.7151625,-89.09755382724289,2.6302246691061755,-5.710387162791237,-0.46,-0.9400000000000001,9.27,-0.001090830782496456,-0.003272492347489368,0.001090830782496456,-9.875,5.375,-49.25
1762289203.0179377,-89.09755382724289,2.6302246691061755,-5.710387162791237,-0.54,-0.96,9.34,0.001090830782496456,0.0,-0.003272492347489368,-9.1875,5.375,-49.25
1762289203.2907743,-89.09755382724289,2.6302246691061755,-5.710387162791237,-0.56,-0.9400000000000001,9.27,-0.001090830782496456,0.001090830782496456,-0.002181661564992912,-9.1875,6.1875,-50.0
1762289203.5110707,-89.09755382724289,2.6302246691061755,-5.710387162791237,-0.41000000000000003,-0.9400000000000001,9.3,0.001090830782496456,-0.001090830782496456,0.002181661564992912,-8.75,6.875,-48.875
1762289203.7743037,-89.09755382724289,2.6302246691061755,-5.710387162791237,-0.54,-0.96,9.27,-0.002181661564992912,0.001090830782496456,-0.001090830782496456,-9.1875,5.375,-49.25
1762289203.999413,-89.09755382724289,2.6302246691061755,-5.710387162791237,-0.46,-0.9500000000000001,9.24,0.0,0.001090830782496456,-0.002181661564992912,-9.1875,6.1875,-48.5
1762289204.2609932,-89.09755382724289,2.6302246691061755,-5.710387162791237,-0.5,-0.97,9.36,0.001090830782496456,-0.001090830782496456,0.0,-9.5625,5.75,-48.5
1762289204.5079947,-89.09755382724289,2.6302246691061755,-5.710387162791237,-0.49,-0.9400000000000001,9.36,-0.002181661564992912,-0.006544984694978736,0.002181661564992912,-8.375,6.1875,-49.25
1762289204.7776835,-89.09755382724289,2.6302246691061755,-5.710387162791237,-0.52,-0.96,9.28,-0.001090830782496456,0.002181661564992912,-0.002181661564992912,-8.0625,5.75,-47.6875
1762289205.0206182,-89.09755382724289,2.6302246691061755,-5.710387162791237,-0.48,-0.96,9.27,-0.001090830782496456,0.001090830782496456,0.0,-9.1875,6.1875,-48.875
1762289205.246046,-89.09755382724289,2.6302246691061755,-5.710387162791237,-0.5,-0.9400000000000001,9.26,-0.001090830782496456,0.001090830782496456,-0.002181661564992912,-9.875,5.375,-50.5
1762289205.518321,-89.09755382724289,2.6302246691061755,-5.710387162791237,-0.56,-0.9500000000000001,9.3,-0.001090830782496456,0.001090830782496456,-0.001090830782496456,-9.1875,6.1875,-49.25
1762289205.7466989,-89.09755382724289,2.6302246691061755,-5.710387162791237,-0.44,-0.9400000000000001,9.290000000000001,0.0,-0.002181661564992912,-0.002181661564992912,-8.75,6.875,-48.5
1762289206.0096602,-89.09755382724289,2.6302246691061755,-5.710387162791237,-0.48,-0.93,9.32,0.001090830782496456,0.001090830782496456,-0.001090830782496456,-9.875,5.0,-48.875
1762289206.234031,-89.09755382724289,2.6302246691061755,-5.710387162791237,-0.49,-0.9500000000000001,9.290000000000001,0.001090830782496456,0.001090830782496456,0.0,-9.1875,5.0,-49.25
1762289206.4997513,-89.09755382724289,2.6302246691061755,-5.710387162791237,-0.47000000000000003,-0.96,9.27,0.0,-0.001090830782496456,0.0,-9.1875,6.5,-48.875
1762289206.7260873,-89.09755382724289,2.6302246691061755,-5.710387162791237,-0.48,-0.97,9.3,-0.001090830782496456,0.003272492347489368,-0.002181661564992912,-9.1875,6.1875,-48.0625
1762289207.0195518,-89.09755382724289,2.6302246691061755,-5.710387162791237,-0.44,-0.9500000000000001,9.35,-0.001090830782496456,-0.003272492347489368,0.003272492347489368,-8.375,5.75,-48.0625
1762289207.2468033,-89.09755382724289,2.6302246691061755,-5.710387162791237,-0.49,-0.93,9.42,0.0,-0.004363323129985824,0.0,-8.75,5.375,-47.25
1762289207.4821827,-89.09612126239183,2.61535043789782,-5.7054862242525965,-0.55,-0.98,9.15,-0.003272492347489368,0.008726646259971648,0.001090830782496456,-8.75,6.1875,-48.875
1762289207.7334237,-89.09612126239183,2.61535043789782,-5.7054862242525965,-0.49,-0.92,9.3,0.001090830782496456,0.003272492347489368,-0.001090830782496456,-9.5625,5.75,-49.6875
1762289207.9551468,-89.09612126239183,2.61535043789782,-5.7054862242525965,-0.5,-0.96,9.3,0.0,-0.003272492347489368,0.001090830782496456,-8.375,5.75,-48.5
1762289208.219862,-89.09612126239183,2.61535043789782,-5.7054862242525965,-0.51,-0.96,9.290000000000001,0.001090830782496456,0.002181661564992912,0.002181661564992912,-9.5625,6.5,-48.875
1762289208.4524963,-89.09612126239183,2.61535043789782,-5.7054862242525965,-0.48,-0.96,9.290000000000001,0.0,0.002181661564992912,0.0,-8.375,6.1875,-48.875
1762289208.7275832,-89.09612126239183,2.61535043789782,-5.7054862242525965,-0.55,-0.9500000000000001,9.35,0.0,-0.003272492347489368,0.002181661564992912,-9.1875,5.375,-48.5
1762289208.9563406,-89.09612126239183,2.61535043789782,-5.7054862242525965,-0.47000000000000003,-0.93,9.290000000000001,0.0,-0.002181661564992912,0.0,-9.875,5.75,-48.0625
1762289209.2287283,-89.09612126239183,2.61535043789782,-5.7054862242525965,-0.5,-0.99,9.31,0.0,0.0,0.001090830782496456,-9.1875,6.5,-48.875
1762289209.458635,-89.09612126239183,2.61535043789782,-5.7054862242525965,-0.47000000000000003,-0.9500000000000001,9.31,-0.002181661564992912,-0.001090830782496456,0.001090830782496456,-10.1875,5.375,-48.0625
1762289209.695531,-89.09612126239183,2.61535043789782,-5.7054862242525965,-0.45,-0.97,9.28,-0.001090830782496456,0.002181661564992912,-0.002181661564992912,-9.1875,5.375,-49.25
1762289209.9496205,-89.09612126239183,2.61535043789782,-5.7054862242525965,-0.53,-0.9400000000000001,9.370000000000001,-0.001090830782496456,0.004363323129985824,0.001090830782496456,-9.1875,6.1875,-48.875
1762289210.1741993,-89.09612126239183,2.61535043789782,-5.7054862242525965,-0.43,-0.97,9.290000000000001,0.001090830782496456,0.001090830782496456,0.001090830782496456,-9.1875,5.0,-49.25
1762289210.443855,-89.09612126239183,2.61535043789782,-5.7054862242525965,-0.52,-0.9500000000000001,9.28,0.0,0.001090830782496456,-0.001090830782496456,-9.875,6.1875,-49.6875
1762289210.6882448,-89.09755382724289,2.6302246691061755,-5.710387162791237,-0.22,-0.47000000000000003,9.05,-0.001090830782496456,0.020725784867432664,-0.003272492347489368,-9.1875,5.0,-49.25
1762289210.961378,-89.09898978884998,2.6450990777036796,-5.715288642828552,-0.5700000000000001,-0.91,9.48,0.003272492347489368,0.006544984694978736,-0.002181661564992912,-9.1875,6.1875,-49.6875
1762289211.195624,-89.09970055313441,2.6598843491223727,-5.710254487274627,-0.37,-1.02,9.25,0.001090830782496456,0.00545415391248228,0.0,-8.375,5.375,-50.0625
1762289211.475303,-89.09970055313441,2.6598843491223727,-5.710254487274627,-0.53,-0.91,9.28,-0.001090830782496456,-0.001090830782496456,-0.002181661564992912,-8.75,5.75,-49.25
1762289211.7093856,-89.09970055313441,2.6598843491223727,-5.710254487274627,-0.48,-0.96,9.3,0.0,0.002181661564992912,-0.001090830782496456,-9.1875,5.75,-51.25
1762289211.9950957,-89.09970055313441,2.6598843491223727,-5.710254487274627,-0.52,-0.9400000000000001,9.32,-0.001090830782496456,-0.002181661564992912,0.0,-9.5625,5.75,-49.25
1762289212.2322817,-89.09970055313441,2.6598843491223727,-5.710254487274627,-0.52,-0.98,9.31,-0.001090830782496456,0.002181661564992912,-0.001090830782496456,-8.75,5.375,-49.6875
1762289212.463401,-89.09970055313441,2.6598843491223727,-5.710254487274627,-0.51,-0.9500000000000001,9.28,0.002181661564992912,0.002181661564992912,-0.002181661564992912,-9.5625,5.375,-49.6875
1762289212.7316704,-89.09970055313441,2.6598843491223727,-5.710254487274627,-0.5,-0.9400000000000001,9.3,-0.002181661564992912,0.0,0.001090830782496456,-9.1875,6.5,-49.6875
1762289212.979892,-89.09970055313441,2.6598843491223727,-5.710254487274627,-0.49,-0.9,9.36,0.001090830782496456,0.001090830782496456,0.002181661564992912,-8.75,6.5,-49.6875
1762289213.2568405,-89.09970055313441,2.6598843491223727,-5.710254487274627,-0.47000000000000003,-0.96,9.33,0.0,-0.001090830782496456,0.004363323129985824,-9.1875,6.1875,-48.5
1762289213.4902873,-89.09970055313441,2.6598843491223727,-5.710254487274627,-0.54,-0.99,9.27,0.0,0.0,0.0,-9.1875,5.75,-50.0625
1762289213.768406,-89.09970055313441,2.6598843491223727,-5.710254487274627,-0.48,-0.9500000000000001,9.290000000000001,0.0,0.0,0.0,-9.1875,5.75,-50.0
1762289214.009605,-89.09970055313441,2.6598843491223727,-5.710254487274627,-0.49,-1.0,9.25,-0.001090830782496456,0.002181661564992912,0.001090830782496456,-9.875,6.1875,-49.25
1762289214.2909427,-89.09970055313441,2.6598843491223727,-5.710254487274627,-0.48,-0.93,9.25,0.002181661564992912,0.0,-0.001090830782496456,-8.75,5.375,-49.6875
1762289214.5584047,-89.09970055313441,2.6598843491223727,-5.710254487274627,-0.49,-0.93,9.290000000000001,0.0,-0.001090830782496456,0.0,-9.5625,5.375,-49.25
1762289214.8569188,-89.09970055313441,2.6598843491223727,-5.710254487274627,-0.47000000000000003,-0.96,9.290000000000001,-0.001090830782496456,-0.002181661564992912,-0.001090830782496456,-8.75,5.375,-49.6875
1762289215.115189,-89.10034657254111,2.6645116737449794,-5.715066664727937,-0.63,-1.01,9.11,-0.006544984694978736,0.003272492347489368,0.0,-9.1875,5.375,-48.875
1762289215.414911,-89.10396296614333,2.699247507509042,-5.729820029291854,-0.5700000000000001,-0.97,9.3,-0.004363323129985824,0.004363323129985824,-0.001090830782496456,-10.1875,5.75,-48.5
1762289215.6630309,-89.10541433685053,2.7141218977121233,-5.7347244058669915,-0.48,-0.97,9.32,0.001090830782496456,0.001090830782496456,-0.002181661564992912,-9.1875,5.0,-50.0625
1762289215.9446087,-89.10760060621776,2.733984334130421,-5.744576707160741,-0.48,-0.9400000000000001,9.200000000000001,0.001090830782496456,-0.001090830782496456,-0.001090830782496456,-8.75,5.75,-48.875
1762289216.182822,-89.10906047399554,2.7488591534112548,-5.749482431524041,-0.46,-0.9500000000000001,9.31,0.0,0.001090830782496456,0.003272492347489368,-8.375,6.1875,-48.5
1762289216.4762347,-89.10906047399554,2.7488591534112548,-5.749482431524041,-0.5,-0.97,9.22,-0.001090830782496456,-0.001090830782496456,0.001090830782496456,-9.5625,5.75,-48.5
1762289216.70813,-89.10906047399554,2.7488591534112548,-5.749482431524041,-0.5,-0.9400000000000001,9.290000000000001,0.0,0.0,-0.001090830782496456,-8.75,5.75,-48.0625
1762289216.9957335,-89.10906047399554,2.7488591534112548,-5.749482431524041,-0.49,-0.9400000000000001,9.27,0.0,0.001090830782496456,0.0,-8.75,6.5,-49.25
1762289217.2293522,-89.10906047399554,2.7488591534112548,-5.749482431524041,-0.46,-0.9400000000000001,9.26,0.0,0.002181661564992912,-0.002181661564992912,-9.1875,5.0,-49.25
1762289217.457572,-89.10906047399554,2.7488591534112548,-5.749482431524041,-0.49,-0.92,9.33,0.0,-0.001090830782496456,0.0,-9.875,5.75,-49.25
1762289217.7304332,-89.10906047399554,2.7488591534112548,-5.749482431524041,-0.55,-0.96,9.3,-0.001090830782496456,0.0,0.0,-8.375,5.375,-49.25
1762289217.9602132,-89.10906047399554,2.7488591534112548,-5.749482431524041,-0.49,-0.96,9.32,-0.001090830782496456,0.0,0.001090830782496456,-8.75,6.1875,-49.25
1762289218.2427683,-89.10906047399554,2.7488591534112548,-5.749482431524041,-0.44,-0.9400000000000001,9.290000000000001,-0.001090830782496456,0.0,0.002181661564992912,-9.1875,6.1875,-49.25
1762289218.4725668,-89.10906047399554,2.7488591534112548,-5.749482431524041,-0.46,-0.97,9.31,0.001090830782496456,-0.001090830782496456,0.002181661564992912,-8.0625,6.1875,-49.25
1762289218.7426934,-89.10906047399554,2.7488591534112548,-5.749482431524041,-0.48,-0.92,9.28,0.002181661564992912,-0.002181661564992912,0.0,-9.1875,5.75,-48.875
1762289218.96765,-89.10906047399554,2.7488591534112548,-5.749482431524041,-0.51,-0.98,9.27,-0.001090830782496456,0.002181661564992912,-0.001090830782496456,-9.875,5.375,-48.875
1762289219.2375872,-89.10906047399554,2.7488591534112548,-5.749482431524041,-0.51,-0.9400000000000001,9.38,0.001090830782496456,0.0,0.0,-9.5625,6.1875,-48.875
1762289219.469147,-89.10686342309482,2.7338954404920814,-5.73463992055319,-1.44,-1.34,12.64,0.04690572364734761,-0.06654067773228381,0.008726646259971648,-9.6875,5.0,-47.5625
1762289219.7743406,-89.10981159786849,2.7391500060574985,-5.769398552669783,-0.63,-1.09,9.83,0.004363323129985824,0.006544984694978736,0.001090830782496456,-10.25,5.875,-48.375
1762289220.2326987,-89.10908322674881,2.729263150821793,-5.769440339483718,-0.48,-0.9400000000000001,9.27,0.0,0.0,0.002181661564992912,-8.875,5.5,-49.5625
1762289220.7946763,-89.10908322674881,2.729263150821793,-5.769440339483718,-0.54,-0.9500000000000001,9.32,-0.002181661564992912,0.001090830782496456,0.0,-9.6875,5.875,-50.0
1762289221.3941875,-89.10908322674881,2.729263150821793,-5.769440339483718,-0.48,-0.9500000000000001,9.28,0.0,0.0,0.0,-8.875,6.25,-49.1875
1762289222.3006473,-89.10505392556608,2.813389950380019,-5.763754238361136,-0.37,-0.9400000000000001,9.28,0.0,-0.002181661564992912,0.004363323129985824,-9.25,5.5,-48.75
