timestamp,yaw,pitch,roll,ax,ay,az,gx,gy,gz,mx,my,mz
1771616871.7821615,-46.71088957802214,1.3865313921747777,-8.413925296915657,-0.21085339491810395,-1.4301868866249656,9.784011998184248,0.0,0.0,0.001090830782496456,-5.6875,11.75,-48.375
1771616873.151644,-46.23051688792462,1.3878166981919042,-8.416395482638274,-0.21007469386417219,-1.432325473701584,9.765391217209586,-0.001090830782496456,0.001090830782496456,0.0,-3.5,12.1875,-48.75
1771616873.600505,-46.108177475222526,1.3839513879830367,-8.409457574102841,-0.2274442474183829,-1.437001671840617,9.777112063917643,0.001090830782496456,0.0,-0.001090830782496456,-3.5,12.5,-48.75
1771616873.636258,-46.108177475222526,1.3839513879830367,-8.409457574102841,-0.22160895179192203,-1.4380046461034506,9.781423222504872,0.001090830782496456,0.001090830782496456,0.0,-3.5,11.75,-48.75
1771616873.6630552,-46.108177475222526,1.3839513879830367,-8.409457574102841,-0.21772562773703555,-1.4353270025640905,9.787637362093195,0.0,0.002181661564992912,-0.001090830782496456,-3.5,11.75,-48.75
1771616874.0100603,-45.91902019551582,1.3888457975330515,-8.411066773977488,-0.2253298657949748,-1.4382435456246159,9.772584992661455,0.001090830782496456,0.001090830782496456,0.0,-3.875,13.25,-49.1875
1771616874.0269973,-45.90416499470174,1.3900025740494464,-8.410951453452931,-0.2253298657949748,-1.4382435456246159,9.772584992661455,0.001090830782496456,-0.002181661564992912,0.001090830782496456,-3.875,13.25,-49.1875
1771616874.0443277,-45.90416499470174,1.3900025740494464,-8.410951453452931,-0.22354696614805367,-1.438831099234063,9.771720283739938,-0.001090830782496456,0.001090830782496456,0.0,-3.875,12.5,-48.375
1771616874.0598295,-45.90416499470174,1.3900025740494464,-8.410951453452931,-0.2223604663493217,-1.439222109597746,9.7711448296121,0.0,0.0,-0.002181661564992912,-3.875,12.5,-48.375
1771616874.0807586,-45.89579332310488,1.3904419699289665,-8.410676458078914,-0.22157086398733675,-1.4361372109195858,9.770761871318268,0.0,0.002181661564992912,0.0,-3.875,12.5,-48.375
1771616874.0956795,0.11646182829661196,1.3904873760925558,-8.410950157984908,-0.22157086398733675,-1.4361372109195858,9.770761871318268,0.0,0.002181661564992912,0.0,-3.875,12.5,-48.375
1771616874.1178937,0.11646182829661196,1.3904873760925558,-8.410950157984908,0.8806401381020483,-1.1525901188361836,9.773852128558966,-0.0015424262975681524,-2.72893505577287e-05,-0.002181661564992912,-11.460102489031472,5.675987331812385,-48.0
1771616874.141813,0.04133540317618479,1.3849459636349044,-8.41174757166485,0.8790391909187077,-1.1474648317340685,9.775908660232215,-0.0007848578240629405,0.0007575684735052118,-0.002181661564992912,-11.460102489031472,5.675987331812385,-48.0
1771616874.171697,0.04133540317618479,1.3849459636349044,-8.41174757166485,0.873327501118227,-1.1488676572998444,9.777277259087798,0.0,0.0,-0.001090830782496456,-11.460102489031472,5.675987331812385,-48.0
1771616874.5458992,-0.20989527342459374,1.3821217126188894,-8.413805014490297,0.86989659827098,-1.1520101254286204,9.77391329089671,0.002327284121631093,-0.0007302791229474832,0.001090830782496456,-12.432222176698565,5.658788121073665,-48.75
1771616874.562284,-0.20989527342459374,1.3821217126188894,-8.413805014490297,0.8649200691737562,-1.1542993229188236,9.772604251377437,-0.0007848578240629405,0.0007575684735052118,0.0,-12.432222176698565,5.658788121073665,-48.75
1771616874.5806432,-0.3612676117157308,1.386599545070989,-8.414444480321919,0.8616082446510261,-1.1558227582765424,9.77173310020029,2.7289350557728675e-05,-0.0015424262975681524,0.0,-11.926617775207383,4.562706263184966,-48.375
1771616874.597777,-0.3612676117157308,1.386599545070989,-8.414444480321919,0.8594042624266534,-1.1568365874892161,9.771153358823295,0.0015424262975681524,2.72893505577287e-05,0.0,-11.926617775207383,4.562706263184966,-48.375
1771616874.6146169,-0.3612676117157308,1.386599545070989,-8.414444480321919,0.8626674989828,-1.1574275947323833,9.76742243570572,0.0015424262975681524,2.72893505577287e-05,0.0,-11.926617775207383,4.562706263184966,-48.375
1771616874.6329968,-0.3612676117157308,1.386599545070989,-8.414444480321919,0.8626674989828,-1.1574275947323833,9.76742243570572,0.0015424262975681524,2.72893505577287e-05,0.0,-11.926617775207383,4.562706263184966,-48.375
1771616874.6495235,-0.3612676117157308,1.386599545070989,-8.414444480321919,0.8648391464581748,-1.1578209034507279,9.764939548048117,0.0008121471746206692,-0.002299994771073364,-0.002181661564992912,-11.677129870151557,5.451142127629246,-48.0
1771616874.6662972,-0.3612676117157308,1.386599545070989,-8.414444480321919,0.8662843535941449,-1.1580826460092397,9.766632325754975,-0.0008121471746206692,0.002299994771073364,-0.002181661564992912,-11.677129870151557,5.451142127629246,-48.0
1771616874.6853921,-0.37043117568489903,1.3859702118205939,-8.414824971203021,0.8694855766933185,-1.1511200472121887,9.767758850409322,0.0008121471746206692,-0.002299994771073364,0.0,-11.677129870151557,5.451142127629246,-48.0
1771616875.046523,-0.13477274163069228,1.3876661687699783,-8.413021639116964,0.8830258467516143,-1.1748155363254706,9.806744819505004,0.0015424262975681524,2.72893505577287e-05,0.002181661564992912,-12.432222176698565,5.658788121073665,-48.75
1771616875.0656729,-0.13477274163069228,1.3876661687699783,-8.413021639116964,0.8903378319055846,-1.1762781155728195,9.80448860203601,0.0015424262975681524,2.72893505577287e-05,0.0,-11.964143325910042,6.683694672640439,-48.75
1771616875.0892918,-0.13477274163069228,1.3876661687699783,-8.413021639116964,0.8903065446936481,-1.1678752062837576,9.802987114513995,-0.0031121419456940336,0.001487847596452695,-0.001090830782496456,-11.964143325910042,6.683694672640439,-48.75
1771616875.1054096,-0.13477274163069228,1.3876661687699783,-8.413021639116964,0.8903065446936481,-1.1678752062837576,9.802987114513995,-0.0031121419456940336,0.001487847596452695,-0.001090830782496456,-11.964143325910042,6.683694672640439,-48.75
1771616875.1248782,-0.13477274163069228,1.3876661687699783,-8.413021639116964,0.8902857234036055,-1.162283164018534,9.79864277963349,0.0015424262975681524,2.72893505577287e-05,0.0,-11.964143325910042,6.683694672640439,-48.75
1771616875.1496856,-0.27923196010849183,1.3862394568424008,-8.411041086039333,0.888032413173464,-1.1656985079041176,9.775681003055997,0.0,0.0,0.001090830782496456,-12.501833918407879,4.596730351733317,-48.0
1771616875.17453,-0.27923196010849183,1.3862394568424008,-8.411041086039333,0.8818865830527102,-1.1727850279871073,9.780470867487443,0.002354573472188822,-0.0022727054205156356,-0.001090830782496456,-12.501833918407879,4.596730351733317,-48.0
1771616875.2039828,-0.11004450720036829,1.389427842020636,-8.412381008306475,0.8824428790944887,-1.172687381061696,9.776968245345639,0.0007575684735052118,0.0007848578240629405,0.002181661564992912,-12.501833918407879,4.596730351733317,-48.0
1771616875.6590137,0.14823030445482524,1.3836078814582042,-8.414125653190418,0.8748594310296259,-1.1621010195038948,9.775011059742468,-0.0007575684735052118,-0.0007848578240629405,-0.001090830782496456,-12.241401061063778,4.8665445967530845,-47.5625
1771616875.6843588,0.14823030445482524,1.3836078814582042,-8.414125653190418,0.8752758797093926,-1.158524191991081,9.769989692574088,-0.002299994771073364,-0.0008121471746206692,0.001090830782496456,-12.224576183254145,6.413880427620673,-48.75
1771616875.702163,0.14823030445482524,1.3836078814582042,-8.414125653190418,0.877959845093253,-1.158466991903944,9.763302917108557,0.0007848578240629405,-0.0007575684735052118,0.0,-12.224576183254145,6.413880427620673,-48.75
1771616875.719543,0.14823030445482524,1.3836078814582042,-8.414125653190418,0.8774228554074947,-1.1608357493244341,9.758852942732425,0.0007848578240629405,-0.0007575684735052118,0.0,-12.224576183254145,6.413880427620673,-48.75
1771616876.1485248,-0.027875375589826334,1.3863255897397446,-8.41539515090978,0.8729394745804276,-1.1600685611127022,9.75537436465023,0.001569715648125881,-0.0015151369470104237,0.002181661564992912,-11.68494769321461,5.8930147129324695,-48.375
1771616876.1832786,-0.027875375589826334,1.3863255897397446,-8.41539515090978,0.8729394745804276,-1.1600685611127022,9.75537436465023,0.001569715648125881,-0.0015151369470104237,0.002181661564992912,-11.68494769321461,5.8930147129324695,-48.375
1771616876.2403743,-0.027875375589826334,1.3863255897397446,-8.41539515090978,0.8692682080333977,-1.1572552984084428,9.7636119147611,0.001569715648125881,-0.0015151369470104237,-0.001090830782496456,-11.68494769321461,5.8930147129324695,-48.375
1771616877.1420183,0.09446913075087625,1.3888494923981733,-8.411089072555807,0.8843974667576551,-1.1586441808075496,9.755801787791485,-0.0007848578240629405,0.0007575684735052118,-0.002181661564992912,-11.68494769321461,5.8930147129324695,-48.375
1771616877.9088795,0.09446913075087625,1.3888494923981733,-8.411089072555807,0.8827684662261404,-1.1589140600108097,9.76956192703671,-0.0007848578240629405,0.0007575684735052118,0.002181661564992912,-11.677129870151557,5.451142127629246,-49.1875
1771616878.291844,0.09446913075087625,1.3888494923981733,-8.411089072555807,0.8873670957920424,-1.1524762908277386,9.758966533246808,-0.0007575684735052118,-0.0007848578240629405,-0.002181661564992912,-11.424514835870509,6.162828957952236,-48.375
1771616878.3118546,0.09446913075087625,1.3888494923981733,-8.411089072555807,0.8860900991011755,-1.1591721433455948,9.75931223942033,0.0030848525951363047,5.45787011154574e-05,0.0,-11.424514835870509,6.162828957952236,-48.375
1771616878.3314786,0.09446913075087625,1.3888494923981733,-8.411089072555807,0.8851565872957387,-1.1588981962922824,9.772922749846296,0.0007848578240629405,-0.0007575684735052118,-0.001090830782496456,-11.460102489031472,5.675987331812385,-49.1875
1771616878.3472013,0.09446913075087625,1.3888494923981733,-8.411089072555807,0.8851565872957387,-1.1588981962922824,9.772922749846296,0.0007848578240629405,-0.0007575684735052118,-0.001090830782496456,-11.460102489031472,5.675987331812385,-49.1875
1771616878.3692877,0.09446913075087625,1.3888494923981733,-8.411089072555807,0.8798053835108585,-1.1587995723611446,9.781980392495413,0.00159700499868361,-0.0030575632445785763,0.0,-11.460102489031472,5.675987331812385,-49.1875
1771616878.387049,0.09446913075087625,1.3888494923981733,-8.411089072555807,0.8798053835108585,-1.1587995723611446,9.781980392495413,0.00159700499868361,-0.0030575632445785763,0.0,-11.460102489031472,5.675987331812385,-49.1875
1771616878.4170308,0.09446913075087625,1.3888494923981733,-8.411089072555807,0.8763279019415364,-1.1634639013430463,9.777972817375945,0.002327284121631093,-0.0007302791229474832,-0.001090830782496456,-12.162407931678798,5.398355263729563,-49.1875
1771616878.4471824,0.09446913075087625,1.3888494923981733,-8.411089072555807,0.874013676803167,-1.166567960176533,9.775305820901485,-0.0007575684735052118,-0.0007848578240629405,0.001090830782496456,-12.162407931678798,5.398355263729563,-49.1875
1771616878.9732547,0.09446913075087625,1.3888494923981733,-8.411089072555807,0.8707369058651344,-1.167708429424265,9.77148422799511,2.7289350557728675e-05,-0.0015424262975681524,0.001090830782496456,-10.982642250567286,6.17064678101529,-48.0
1771616879.6291342,0.09446913075087625,1.3888494923981733,-8.411089072555807,0.8725143278943964,-1.1582390301134626,9.769444952099507,0.0,0.0,-0.001090830782496456,-11.68494769321461,5.8930147129324695,-48.75
1771616879.9807227,0.09446913075087625,1.3888494923981733,-8.411089072555807,0.8814644282871423,-1.1683939178009837,9.76807721007113,-0.0015424262975681524,-2.72893505577287e-05,-0.001090830782496456,-11.68494769321461,5.8930147129324695,-49.5625
1771616879.997731,0.09446913075087625,1.3888494923981733,-8.411089072555807,0.8844850784806407,-1.1673583228452329,9.768720404781307,0.0015424262975681524,2.72893505577287e-05,0.001090830782496456,-11.68494769321461,5.8930147129324695,-49.5625
1771616880.0138593,0.09446913075087625,1.3888494923981733,-8.411089072555807,0.8840884640020279,-1.1643460073036747,9.769148443675975,0.001569715648125881,-0.0015151369470104237,-0.002181661564992912,-11.68494769321461,5.8930147129324695,-49.5625
1771616880.0294187,0.09446913075087625,1.3888494923981733,-8.411089072555807,0.8791782441632656,-1.167154991839562,9.76943329877887,-0.0007848578240629405,0.0007575684735052118,-0.001090830782496456,-12.466246265246916,5.083571977873169,-49.5625
1771616880.0479043,0.09446913075087625,1.3888494923981733,-8.411089072555807,0.8759105477113188,-1.1690243396697817,9.769622866667804,-2.7289350557728675e-05,0.0015424262975681524,0.002181661564992912,-12.466246265246916,5.083571977873169,-49.5625
1771616880.0668635,0.09446913075087625,1.3888494923981733,-8.411089072555807,0.8759105477113188,-1.1690243396697817,9.769622866667804,-2.7289350557728675e-05,0.0015424262975681524,0.002181661564992912,-12.466246265246916,5.083571977873169,-49.5625
1771616880.0843844,0.09446913075087625,1.3888494923981733,-8.411089072555807,0.8760590708919691,-1.167861546329297,9.76640391027296,2.7289350557728675e-05,-0.0015424262975681524,0.0,-12.466246265246916,5.083571977873169,-49.5625
1771616880.1003344,0.09446913075087625,1.3888494923981733,-8.411089072555807,0.8761579114095792,-1.1670877203504573,9.770951954164929,0.0,0.0,0.0,-13.00587475528645,5.604437692561373,-50.0
1771616880.1177785,0.09446913075087625,1.3888494923981733,-8.411089072555807,0.8784631425641348,-1.1594359622598571,9.767288403155415,5.457870111545735e-05,-0.0030848525951363047,0.001090830782496456,-13.00587475528645,5.604437692561373,-50.0
1771616880.1342096,0.09446913075087625,1.3888494923981733,-8.411089072555807,0.8799972481463725,-1.1543438027263015,9.77488568600509,-0.0015151369470104237,-0.001569715648125881,0.0,-13.00587475528645,5.604437692561373,-50.0
1771616880.1506195,0.09446913075087625,1.3888494923981733,-8.411089072555807,0.8799972481463725,-1.1543438027263015,9.77488568600509,-0.0015151369470104237,-0.001569715648125881,0.0,-13.00587475528645,5.604437692561373,-50.0
1771616880.4576569,0.09446913075087625,1.3888494923981733,-8.411089072555807,0.8851009349732321,-1.1595131262908203,9.77074788643172,0.0,0.0,-0.001090830782496456,-12.224576183254145,6.413880427620673,-50.375
1771616880.475189,0.09446913075087625,1.3888494923981733,-8.411089072555807,0.8851009349732321,-1.1595131262908203,9.77074788643172,0.0,0.0,-0.001090830782496456,-12.224576183254145,6.413880427620673,-50.375
1771616880.49274,0.09446913075087625,1.3888494923981733,-8.411089072555807,0.8892282717246518,-1.1590414318606481,9.77384282177319,0.0015424262975681524,2.72893505577287e-05,0.0,-12.224576183254145,6.413880427620673,-50.375
1771616880.5109124,0.09446913075087625,1.3888494923981733,-8.411089072555807,0.8849218674541173,-1.1612180326987058,9.775902466670246,-0.001569715648125881,0.0015151369470104237,0.0,-12.171789319354463,5.928602366093433,-48.75
1771616880.5273843,0.09446913075087625,1.3888494923981733,-8.411089072555807,0.8820560035177643,-1.1626665362422086,9.777273137341496,0.0015424262975681524,2.72893505577287e-05,-0.001090830782496456,-12.171789319354463,5.928602366093433,-48.75
1771616880.5467563,0.09446913075087625,1.3888494923981733,-8.411089072555807,0.8778256644150594,-1.1660373226090774,9.778185303361816,-0.002327284121631093,0.0007302791229474832,-0.001090830782496456,-12.171789319354463,5.928602366093433,-48.75
1771616880.561683,0.09446913075087625,1.3888494923981733,-8.411089072555807,0.8778256644150594,-1.1660373226090774,9.778185303361816,-0.002327284121631093,0.0007302791229474832,-0.001090830782496456,-12.171789319354463,5.928602366093433,-48.75
1771616880.5795543,0.09446913075087625,1.3888494923981733,-8.411089072555807,0.8796566983319128,-1.1634668964030528,9.778792339658779,-0.0007575684735052118,-0.0007848578240629405,0.003272492347489368,-11.199669631687371,5.945801576832151,-48.375
1771616880.5951567,0.09446913075087625,1.3888494923981733,-8.411089072555807,0.8762289536158704,-1.1665699533555103,9.779196315533367,-0.001569715648125881,0.0015151369470104237,0.0,-11.199669631687371,5.945801576832151,-48.375
1771616880.6103232,0.09446913075087625,1.3888494923981733,-8.411089072555807,0.8762709664646212,-1.1662281796544411,9.7794651569652,-0.0007848578240629405,0.0007575684735052118,-0.002181661564992912,-11.199669631687371,5.945801576832151,-48.375
1771616880.6258857,0.09446913075087625,1.3888494923981733,-8.411089072555807,0.8762709664646212,-1.1662281796544411,9.7794651569652,-0.0007848578240629405,0.0007575684735052118,-0.002181661564992912,-11.199669631687371,5.945801576832151,-48.375
1771616880.6442387,0.09446913075087625,1.3888494923981733,-8.411089072555807,0.878705748985663,-1.1683238717411015,9.77629895622761,-2.7289350557728675e-05,0.0015424262975681524,0.0,-11.362346584295162,5.147303794061127,-48.0
1771616880.6604192,0.09446913075087625,1.3888494923981733,-8.411089072555807,0.8803260695551135,-1.1697185314143594,9.774191885005523,0.0007848578240629405,-0.0007575684735052118,-0.001090830782496456,-11.362346584295162,5.147303794061127,-48.0
1771616880.960455,0.09446913075087625,1.3888494923981733,-8.411089072555807,0.8734713774178505,-1.166077625998408,9.773587434770189,0.0,0.0,0.003272492347489368,-11.954761938234377,6.153447570276572,-49.1875
1771616880.978225,0.09446913075087625,1.3888494923981733,-8.411089072555807,0.8697058682026113,-1.165984226070599,9.76235206264333,-0.0007302791229474832,-0.002327284121631093,0.001090830782496456,-11.954761938234377,6.153447570276572,-49.1875
1771616880.9967666,0.09446913075087625,1.3888494923981733,-8.411089072555807,0.8671999638833637,-1.1659220694619878,9.768255494829514,-0.0008121471746206692,0.002299994771073364,-0.001090830782496456,-11.954761938234377,6.153447570276572,-49.1875
1771616881.0119972,0.09446913075087625,1.3888494923981733,-8.411089072555807,0.8671999638833637,-1.1659220694619878,9.768255494829514,-0.0008121471746206692,0.002299994771073364,-0.001090830782496456,-11.954761938234377,6.153447570276572,-49.1875
1771616881.0299664,0.09446913075087625,1.3888494923981733,-8.411089072555807,0.8749085519917814,-1.1609833732816142,9.762148827881802,-2.7289350557728675e-05,0.0015424262975681524,0.0,-11.68494769321461,5.8930147129324695,-49.1875
1771616881.0475476,0.09446913075087625,1.3888494923981733,-8.411089072555807,0.880038531267362,-1.1576967261424267,9.768120244365997,0.0,0.0,0.0,-11.68494769321461,5.8930147129324695,-49.1875
1771616881.0653076,0.09446913075087625,1.3888494923981733,-8.411089072555807,0.8811293365027778,-1.157916322625064,9.772094155331137,-0.0007848578240629405,0.0007575684735052118,-0.002181661564992912,-11.68494769321461,5.8930147129324695,-49.1875
1771616881.080222,0.09446913075087625,1.3888494923981733,-8.411089072555807,0.8811293365027778,-1.157916322625064,9.772094155331137,-0.0007848578240629405,0.0007575684735052118,-0.002181661564992912,-11.68494769321461,5.8930147129324695,-49.1875
1771616881.0996344,0.09446913075087625,1.3888494923981733,-8.411089072555807,0.8818552552018541,-1.1580624616312056,9.774738748686943,-0.002327284121631093,0.0007302791229474832,-0.001090830782496456,-12.162407931678798,5.398355263729563,-49.5625
1771616881.1167476,0.09446913075087625,1.3888494923981733,-8.411089072555807,0.8823383459870463,-1.1581597155073133,9.76311824919391,-0.0008121471746206692,0.002299994771073364,0.002181661564992912,-12.162407931678798,5.398355263729563,-49.5625
1771616881.1345284,0.09446913075087625,1.3888494923981733,-8.411089072555807,0.8803366988412542,-1.1606312603149784,9.755384936590783,0.0008121471746206692,-0.002299994771073364,0.001090830782496456,-12.162407931678798,5.398355263729563,-49.5625
1771616881.1509256,0.09446913075087625,1.3888494923981733,-8.411089072555807,0.8803366988412542,-1.1606312603149784,9.755384936590783,0.0008121471746206692,-0.002299994771073364,0.001090830782496456,-12.162407931678798,5.398355263729563,-49.5625
1771616881.168826,0.09446913075087625,1.3888494923981733,-8.411089072555807,0.8790046250255933,-1.162276045775515,9.756928726854802,-0.0007575684735052118,-0.0007848578240629405,-0.001090830782496456,-12.171789319354463,5.928602366093433,-49.1875
1771616881.4888399,0.09446913075087625,1.3888494923981733,-8.411089072555807,0.8724237961246453,-1.1725895635292647,9.778560286435718,0.0015424262975681524,2.72893505577287e-05,0.0,-12.736060510266682,5.344004835217271,-49.5625
1771616881.5082512,0.09446913075087625,1.3888494923981733,-8.411089072555807,0.87124816844844,-1.163181062208391,9.779041886705624,0.0007575684735052118,0.0007848578240629405,0.001090830782496456,-12.736060510266682,5.344004835217271,-49.5625
1771616881.5261254,0.09446913075087625,1.3888494923981733,-8.411089072555807,0.8704658013625471,-1.1569198096791957,9.7760172745981,0.0,0.0,0.0,-12.736060510266682,5.344004835217271,-49.5625
1771616881.5451403,0.09446913075087625,1.3888494923981733,-8.411089072555807,0.8704658013625471,-1.1569198096791957,9.7760172745981,0.0,0.0,0.0,-12.736060510266682,5.344004835217271,-49.5625
1771616881.5619593,0.09446913075087625,1.3888494923981733,-8.411089072555807,0.8700288295791511,-1.157482978170162,9.774004429027674,2.7289350557728675e-05,-0.0015424262975681524,0.0,-11.677129870151557,5.451142127629246,-48.75
1771616881.5798378,0.09446913075087625,1.3888494923981733,-8.411089072555807,0.8697380297385957,-1.157857760509896,9.762629567663556,0.002327284121631093,-0.0007302791229474832,-0.001090830782496456,-11.677129870151557,5.451142127629246,-48.75
1771616881.5964324,0.09446913075087625,1.3888494923981733,-8.411089072555807,0.8742744677995253,-1.1580234891977432,9.755059724491263,-0.001569715648125881,0.0015151369470104237,0.001090830782496456,-11.677129870151557,5.451142127629246,-48.75
1771616881.612934,0.09446913075087625,1.3888494923981733,-8.411089072555807,0.8772934166537404,-1.1581337797881948,9.75002207842079,-0.0007848578240629405,0.0007575684735052118,0.001090830782496456,-11.199669631687371,5.945801576832151,-49.1875
1771616881.628615,0.09446913075087625,1.3888494923981733,-8.411089072555807,0.8772934166537404,-1.1581337797881948,9.75002207842079,-0.0007848578240629405,0.0007575684735052118,0.001090830782496456,-11.199669631687371,5.945801576832151,-49.1875
1771616881.6474319,0.09446913075087625,1.3888494923981733,-8.411089072555807,0.8793024933923521,-1.1582071769441136,9.746669581235084,0.0007848578240629405,-0.0007575684735052118,0.0,-11.199669631687371,5.945801576832151,-49.1875
1771616881.6647792,0.09446913075087625,1.3888494923981733,-8.411089072555807,0.8806395115190405,-1.1582560219314775,9.754473866929802,-0.001569715648125881,0.0015151369470104237,0.0,-11.199669631687371,5.945801576832151,-49.1875
1771616881.6818466,0.09446913075087625,1.3888494923981733,-8.411089072555807,0.8863429290259055,-1.1629348050586534,9.759667531880053,0.0007575684735052118,0.0007848578240629405,0.002181661564992912,-11.68494769321461,5.8930147129324695,-48.375
1771616881.9815564,0.09446913075087625,1.3888494923981733,-8.411089072555807,0.8835357257764079,-1.1593923084741333,9.766710655872338,-0.0007848578240629405,0.0007575684735052118,0.0,-12.162407931678798,5.398355263729563,-49.1875
1771616882.0011396,0.09446913075087625,1.3888494923981733,-8.411089072555807,0.888102957716045,-1.1542310668468942,9.761120754812783,-0.00159700499868361,0.0030575632445785763,0.001090830782496456,-12.162407931678798,5.398355263729563,-49.1875
1771616882.0180895,0.09446913075087625,1.3888494923981733,-8.411089072555807,0.8911423995525496,-1.1507963181988132,9.760745849808256,-0.0007848578240629405,0.0007575684735052118,0.0,-11.424514835870509,6.162828957952236,-48.75
1771616882.036659,0.09446913075087625,1.3888494923981733,-8.411089072555807,0.8885188368082342,-1.1533241782211967,9.763841466423026,0.0,0.0,-0.001090830782496456,-11.424514835870509,6.162828957952236,-48.75
1771616882.055841,0.09446913075087625,1.3888494923981733,-8.411089072555807,0.8867728851090083,-1.1550064408280463,9.76590156469985,0.0,0.0,0.0,-11.424514835870509,6.162828957952236,-48.75
1771616882.0722365,0.09446913075087625,1.3888494923981733,-8.411089072555807,0.8867728851090083,-1.1550064408280463,9.76590156469985,0.0,0.0,0.0,-11.424514835870509,6.162828957952236,-48.75
1771616882.0976243,0.09446913075087625,1.3888494923981733,-8.411089072555807,0.8808810116503597,-1.1562096525734527,9.763927425382953,0.0007848578240629405,-0.0007575684735052118,-0.001090830782496456,-11.199669631687371,5.945801576832151,-49.1875
1771616882.1159983,0.09446913075087625,1.3888494923981733,-8.411089072555807,0.8769600356801681,-1.1570103765492648,9.762613657720138,-0.0015424262975681524,-2.72893505577287e-05,0.0,-11.199669631687371,5.945801576832151,-49.1875
1771616882.1315367,0.09446913075087625,1.3888494923981733,-8.411089072555807,0.8743506699721771,-1.1575432494104947,9.761739360016282,-0.0007575684735052118,-0.0007848578240629405,0.0,-11.199669631687371,5.945801576832151,-49.1875
1771616882.1490338,0.09446913075087625,1.3888494923981733,-8.411089072555807,0.8749373049088937,-1.155491046907551,9.764502636368231,-0.002327284121631093,0.0007302791229474832,0.001090830782496456,-11.460102489031472,5.675987331812385,-48.75
1771616882.1659825,0.09446913075087625,1.3888494923981733,-8.411089072555807,0.8777345273456494,-1.1564484677333058,9.769686677619953,0.0007848578240629405,-0.0007575684735052118,0.0,-11.460102489031472,5.675987331812385,-48.75
1771616882.1821215,0.09446913075087625,1.3888494923981733,-8.411089072555807,0.8777345273456494,-1.1564484677333058,9.769686677619953,0.0007848578240629405,-0.0007575684735052118,0.0,-11.460102489031472,5.675987331812385,-48.75
1771616882.4908698,0.09446913075087625,1.3888494923981733,-8.411089072555807,0.8758559929291049,-1.1530397580983978,9.770908523357145,-0.001569715648125881,0.0015151369470104237,-0.001090830782496456,-10.61507210081121,5.38153038591993,-48.75
1771616882.5080762,0.09446913075087625,1.3888494923981733,-8.411089072555807,0.87593908052117,-1.1524940237466448,9.77060461214531,-0.0007848578240629405,0.0007575684735052118,-0.002181661564992912,-10.61507210081121,5.38153038591993,-48.75
1771616882.524742,0.09446913075087625,1.3888494923981733,-8.411089072555807,0.87599437438554,-1.1521308436318054,9.770402362628744,-0.0007848578240629405,0.0007575684735052118,0.0,-10.61507210081121,5.38153038591993,-48.75
1771616882.5424023,0.09446913075087625,1.3888494923981733,-8.411089072555807,0.87599437438554,-1.1521308436318054,9.770402362628744,-0.0007848578240629405,0.0007575684735052118,0.0,-10.61507210081121,5.38153038591993,-48.75
1771616882.5605624,0.09446913075087625,1.3888494923981733,-8.411089072555807,0.8737080331677455,-1.1542959747618797,9.770267767834744,-0.0007848578240629405,0.0007575684735052118,0.0,-11.945380550558713,5.623200467912702,-48.5
1771616882.5774324,0.09446913075087625,1.3888494923981733,-8.411089072555807,0.8721864986274082,-1.155736845342845,9.773523308210178,0.0,0.0,0.0,-11.945380550558713,5.623200467912702,-48.5
1771616882.5944939,0.09446913075087625,1.3888494923981733,-8.411089072555807,0.8711739343874682,-1.1566957286188981,9.775689833963261,-0.0007848578240629405,0.0007575684735052118,0.001090830782496456,-11.945380550558713,5.623200467912702,-48.5
1771616882.613769,0.09446913075087625,1.3888494923981733,-8.411089072555807,0.8705000841968719,-1.1573338547276835,9.77713163265026,0.0007575684735052118,0.0007848578240629405,0.0,-11.207487454750424,6.387674162135375,-48.5
1771616882.6294231,0.09446913075087625,1.3888494923981733,-8.411089072555807,0.8724584678619421,-1.160081659191604,9.778091133570511,0.0031121419456940336,-0.001487847596452695,0.0,-11.207487454750424,6.387674162135375,-48.5
1771616882.6479063,0.09446913075087625,1.3888494923981733,-8.411089072555807,0.8724584678619421,-1.160081659191604,9.778091133570511,0.0031121419456940336,-0.001487847596452695,0.0,-11.207487454750424,6.387674162135375,-48.5
1771616882.665807,0.09446913075087625,1.3888494923981733,-8.411089072555807,0.8713549268749552,-1.1595871537004965,9.775384559007291,0.0,0.0,-0.001090830782496456,-11.207487454750424,6.387674162135375,-48.5
1771616882.6830757,0.09446913075087625,1.3888494923981733,-8.411089072555807,0.8706205326754759,-1.1592580658201528,9.773583363869887,5.457870111545735e-05,-0.0030848525951363047,0.0,-13.266307612630552,5.334623447541606,-48.5
1771616882.699575,0.09446913075087625,1.3888494923981733,-8.411089072555807,0.8701318015394431,-1.1590390615119366,9.772384688626612,-0.0007848578240629405,0.0007575684735052118,-0.002181661564992912,-13.266307612630552,5.334623447541606,-48.5
1771616882.9980137,0.09446913075087625,1.3888494923981733,-8.411089072555807,0.8741697892471669,-1.157429417859058,9.769790595704318,-0.0008121471746206692,0.002299994771073364,0.0,-11.677129870151557,5.451142127629246,-47.5625
1771616883.0155492,0.09446913075087625,1.3888494923981733,-8.411089072555807,0.8700869687005974,-1.1554989780543043,9.766515532073104,-0.002327284121631093,0.0007302791229474832,0.0,-11.677129870151557,5.451142127629246,-47.5625
1771616883.0324578,0.09446913075087625,1.3888494923981733,-8.411089072555807,0.8721835441139741,-1.158860569262386,9.764336013811388,-0.002299994771073364,-0.0008121471746206692,0.002181661564992912,-11.677129870151557,5.451142127629246,-47.5625
1771616883.0481122,0.09446913075087625,1.3888494923981733,-8.411089072555807,0.8721835441139741,-1.158860569262386,9.764336013811388,-0.002299994771073364,-0.0008121471746206692,0.002181661564992912,-11.677129870151557,5.451142127629246,-47.5625
1771616883.0665302,0.09446913075087625,1.3888494923981733,-8.411089072555807,0.8735787916312943,-1.1610976706599299,9.759540457047711,-0.0008121471746206692,0.002299994771073364,-0.001090830782496456,-11.901975074334697,5.6681695087493305,-48.75
1771616883.0853167,0.09446913075087625,1.3888494923981733,-8.411089072555807,0.8721004898286225,-1.1602632979830756,9.756349067591364,0.0,0.0,0.0,-11.901975074334697,5.6681695087493305,-48.75
1771616883.102941,0.09446913075087625,1.3888494923981733,-8.411089072555807,0.8711166964926575,-1.1597080322871824,9.76091545697296,0.002354573472188822,-0.0022727054205156356,-0.001090830782496456,-11.901975074334697,5.6681695087493305,-48.75
1771616883.1192198,0.09446913075087625,1.3888494923981733,-8.411089072555807,0.8727851316841242,-1.1569316857297776,9.7639543380965,-0.0007848578240629405,0.0007575684735052118,0.001090830782496456,-11.901975074334697,5.6681695087493305,-49.1875
1771616883.1357536,0.09446913075087625,1.3888494923981733,-8.411089072555807,0.8727851316841242,-1.1569316857297776,9.7639543380965,-0.0007848578240629405,0.0007575684735052118,0.001090830782496456,-11.901975074334697,5.6681695087493305,-49.1875
1771616883.1539047,0.09446913075087625,1.3888494923981733,-8.411089072555807,0.8763022801059154,-1.1574071967765074,9.772666902952329,-0.0007575684735052118,-0.0007848578240629405,0.0,-11.901975074334697,5.6681695087493305,-49.1875
1771616883.1696558,0.09446913075087625,1.3888494923981733,-8.411089072555807,0.8763197644246355,-1.160130467505812,9.775119905830836,0.0,0.0,-0.001090830782496456,-11.901975074334697,5.6681695087493305,-49.1875
1771616883.1853528,0.09446913075087625,1.3888494923981733,-8.411089072555807,0.8739245766039189,-1.1596196350883774,9.776752351844646,0.0,0.0,-0.001090830782496456,-11.424514835870509,6.162828957952236,-49.5625
1771616883.2004652,0.09446913075087625,1.3888494923981733,-8.411089072555807,0.8739245766039189,-1.1596196350883774,9.776752351844646,0.0,0.0,-0.001090830782496456,-11.424514835870509,6.162828957952236,-49.5625
1771616883.5144017,0.09446913075087625,1.3888494923981733,-8.411089072555807,0.8728209265130579,-1.1584044502006592,9.764375688065245,0.0,0.0,0.002181661564992912,-12.162407931678798,5.398355263729563,-48.375
1771616883.5354037,0.09446913075087625,1.3888494923981733,-8.411089072555807,0.8763261011647163,-1.158387305080022,9.76960219494242,0.001569715648125881,-0.0015151369470104237,0.0,-12.162407931678798,5.398355263729563,-48.375
1771616883.5509832,0.09446913075087625,1.3888494923981733,-8.411089072555807,0.8740124784063092,-1.1631895420727865,9.773080376885273,0.0007848578240629405,-0.0007575684735052118,-0.001090830782496456,-12.162407931678798,5.398355263729563,-48.375
1771616883.568893,0.09446913075087625,1.3888494923981733,-8.411089072555807,0.8740124784063092,-1.1631895420727865,9.773080376885273,0.0007848578240629405,-0.0007575684735052118,-0.001090830782496456,-12.162407931678798,5.398355263729563,-48.375
1771616883.5887346,0.09446913075087625,1.3888494923981733,-8.411089072555807,0.8676591414264241,-1.1617390998132495,9.775395068114404,-0.0008121471746206692,0.002299994771073364,-0.002181661564992912,-11.207487454750424,6.387674162135375,-49.5625
1771616883.606357,0.09446913075087625,1.3888494923981733,-8.411089072555807,0.8634310666377348,-1.1607738466920294,9.773590357563275,0.0,0.0,-0.003272492347489368,-11.207487454750424,6.387674162135375,-49.5625
1771616883.6212711,0.09446913075087625,1.3888494923981733,-8.411089072555807,0.8653472922029244,-1.1600477967497884,9.769044231144118,0.0,0.0,0.001090830782496456,-11.207487454750424,6.387674162135375,-49.5625
1771616883.6381814,0.09446913075087625,1.3888494923981733,-8.411089072555807,0.8653472922029244,-1.1600477967497884,9.769044231144118,0.0,0.0,0.001090830782496456,-11.207487454750424,6.387674162135375,-49.5625
1771616883.657186,0.09446913075087625,1.3888494923981733,-8.411089072555807,0.8666225189109158,-1.1595646186237365,9.766018834795728,-0.002327284121631093,0.0007302791229474832,0.0,-12.44160356437423,6.189035223437534,-48.375
1771616883.6758604,0.09446913075087625,1.3888494923981733,-8.411089072555807,0.8697943067067281,-1.1568362455387897,9.767350579029086,0.0,0.0,0.0,-12.44160356437423,6.189035223437534,-48.375
1771616883.6917384,0.09446913075087625,1.3888494923981733,-8.411089072555807,0.8695819573867902,-1.1574273671681945,9.768236839939828,-0.0008121471746206692,0.002299994771073364,-0.001090830782496456,-12.44160356437423,6.189035223437534,-48.375
1771616883.7087967,0.09446913075087625,1.3888494923981733,-8.411089072555807,0.8718474647259814,-1.1601438906761619,9.765481524968424,-0.0007848578240629405,0.0007575684735052118,0.0,-11.677129870151557,5.451142127629246,-51.1875
1771616883.9987462,0.09446913075087625,1.3888494923981733,-8.411089072555807,0.87137722400281,-1.1565557929627037,9.778551301923208,-0.0030848525951363047,-5.45787011154574e-05,0.0,-11.901975074334697,5.6681695087493305,-48.75
1771616884.015616,0.09446913075087625,1.3888494923981733,-8.411089072555807,0.8683122324981284,-1.1596475525511822,9.779035907612913,0.001569715648125881,-0.0015151369470104237,0.002181661564992912,-11.901975074334697,5.6681695087493305,-48.75
1771616884.032043,0.09446913075087625,1.3888494923981733,-8.411089072555807,0.8662725148899612,-1.161705084020097,9.779358407286011,0.002327284121631093,-0.0007302791229474832,0.002181661564992912,-11.199669631687371,5.945801576832151,-49.1875
1771616884.0529704,0.09446913075087625,1.3888494923981733,-8.411089072555807,0.8662725148899612,-1.161705084020097,9.779358407286011,0.002327284121631093,-0.0007302791229474832,0.002181661564992912,-11.199669631687371,5.945801576832151,-49.1875
1771616884.0692601,0.09446913075087625,1.3888494923981733,-8.411089072555807,0.867321929046377,-1.1653974868953871,9.776227915508581,0.0,0.0,0.0,-11.199669631687371,5.945801576832151,-49.1875
1771616884.0855212,0.09446913075087625,1.3888494923981733,-8.411089072555807,0.8726665797784668,-1.1630410928830253,9.774144608200587,-0.0030848525951363047,-5.45787011154574e-05,0.002181661564992912,-11.199669631687371,5.945801576832151,-49.1875
1771616884.100731,0.09446913075087625,1.3888494923981733,-8.411089072555807,0.8726665797784668,-1.1630410928830253,9.774144608200587,-0.0030848525951363047,-5.45787011154574e-05,0.002181661564992912,-11.199669631687371,5.945801576832151,-49.1875
1771616884.1180902,0.09446913075087625,1.3888494923981733,-8.411089072555807,0.8738165616974997,-1.1591498003235845,9.772758190459182,0.0007575684735052118,0.0007848578240629405,0.001090830782496456,-12.432222176698565,5.658788121073665,-49.1875
1771616884.134013,0.09446913075087625,1.3888494923981733,-8.411089072555807,0.8745818618184762,-1.1565601885938626,9.76514532152494,0.0,0.0,0.0,-12.432222176698565,5.658788121073665,-49.1875
1771616884.1498454,0.09446913075087625,1.3888494923981733,-8.411089072555807,0.8750911605000236,-1.1548368309155912,9.77011437741248,-0.0007848578240629405,0.0007575684735052118,0.0,-12.432222176698565,5.658788121073665,-49.1875
1771616884.1657999,0.09446913075087625,1.3888494923981733,-8.411089072555807,0.8750911605000236,-1.1548368309155912,9.77011437741248,-0.0007848578240629405,0.0007575684735052118,0.0,-12.432222176698565,5.658788121073665,-49.1875
1771616884.181612,0.09446913075087625,1.3888494923981733,-8.411089072555807,0.8754300930833543,-1.1536899556318683,9.763385893475688,0.0,0.0,0.003272492347489368,-11.362346584295162,5.147303794061127,-48.0
1771616884.1973677,0.09446913075087625,1.3888494923981733,-8.411089072555807,0.8733325102645761,-1.1553335463814993,9.77228860940712,-0.0007848578240629405,0.0007575684735052118,0.003272492347489368,-11.362346584295162,5.147303794061127,-48.0
1771616884.2127602,0.09446913075087625,1.3888494923981733,-8.411089072555807,0.8719365923302146,-1.1564273376652672,9.768177932287676,-0.002299994771073364,-0.0008121471746206692,0.0,-11.362346584295162,5.147303794061127,-48.0
1771616884.513023,0.09446913075087625,1.3888494923981733,-8.411089072555807,0.8720662354554407,-1.1645303120290849,9.768630538561002,0.0007302791229474832,0.002327284121631093,0.002181661564992912,-11.145319203175077,5.372148998244266,-50.0
1771616884.5315185,0.09446913075087625,1.3888494923981733,-8.411089072555807,0.8710939005899515,-1.1625476824691316,9.769088638710233,0.0,0.0,-0.001090830782496456,-11.145319203175077,5.372148998244266,-50.0
1771616884.5475812,0.09446913075087625,1.3888494923981733,-8.411089072555807,0.8704468225986606,-1.161228264644406,9.769393499242232,0.001569715648125881,-0.0015151369470104237,0.001090830782496456,-11.145319203175077,5.372148998244266,-50.0
1771616884.566467,0.09446913075087625,1.3888494923981733,-8.411089072555807,0.8704468225986606,-1.161228264644406,9.769393499242232,0.001569715648125881,-0.0015151369470104237,0.001090830782496456,-11.145319203175077,5.372148998244266,-50.0
1771616884.584129,0.09446913075087625,1.3888494923981733,-8.411089072555807,0.8700161994237912,-1.1603502068209142,9.769596380520763,0.0015424262975681524,2.72893505577287e-05,0.002181661564992912,-12.241401061063778,4.8665445967530845,-47.5625
1771616884.5998056,0.09446913075087625,1.3888494923981733,-8.411089072555807,0.8697296245112917,-1.1597658691479287,9.769731395745293,0.00159700499868361,-0.0030575632445785763,-0.001090830782496456,-12.241401061063778,4.8665445967530845,-47.5625
1771616884.6167316,0.09446913075087625,1.3888494923981733,-8.411089072555807,0.8719457355477873,-1.1617001376208962,9.773166358576317,0.0007848578240629405,-0.0007575684735052118,-0.001090830782496456,-12.241401061063778,4.8665445967530845,-47.5625
1771616884.6349618,0.09446913075087625,1.3888494923981733,-8.411089072555807,0.8734205326869927,-1.1629873716824615,9.775452287969316,-0.002327284121631093,0.0007302791229474832,0.0,-11.901975074334697,5.6681695087493305,-48.0
1771616884.6527915,0.09446913075087625,1.3888494923981733,-8.411089072555807,0.8744019937085705,-1.1638440115710866,9.78366377185949,0.0007575684735052118,0.0007848578240629405,0.0,-11.901975074334697,5.6681695087493305,-48.0
1771616884.6723452,0.09446913075087625,1.3888494923981733,-8.411089072555807,0.8750551450547924,-1.1644140958476719,9.789128422660117,-0.001569715648125881,0.0015151369470104237,-0.002181661564992912,-11.901975074334697,5.6681695087493305,-48.0
1771616884.6890855,0.09446913075087625,1.3888494923981733,-8.411089072555807,0.8750551450547924,-1.1644140958476719,9.789128422660117,-0.001569715648125881,0.0015151369470104237,-0.002181661564992912,-11.901975074334697,5.6681695087493305,-48.0
1771616884.7053788,0.09446913075087625,1.3888494923981733,-8.411089072555807,0.8682693396609873,-1.1578240645649016,9.779384639894506,2.7289350557728675e-05,-0.0015424262975681524,0.001090830782496456,-12.162407931678798,5.398355263729563,-49.5625
1771616884.7209797,0.09446913075087625,1.3888494923981733,-8.411089072555807,0.8661602854133355,-1.155761611028551,9.766210037894538,0.0031121419456940336,-0.001487847596452695,0.0,-12.162407931678798,5.398355263729563,-49.5625
1771616885.0075095,0.09446913075087625,1.3888494923981733,-8.411089072555807,0.8786994576558795,-1.1660092144453644,9.76647461990946,-0.0007848578240629405,0.0007575684735052118,0.0,-11.68494769321461,5.8930147129324695,-48.75
1771616885.024575,0.09446913075087625,1.3888494923981733,-8.411089072555807,0.877915059305909,-1.165855014173603,9.76765389893082,-0.0007848578240629405,0.0007575684735052118,0.0,-11.68494769321461,5.8930147129324695,-48.75
1771616885.0400512,0.09446913075087625,1.3888494923981733,-8.411089072555807,0.877915059305909,-1.165855014173603,9.76765389893082,-0.0007848578240629405,0.0007575684735052118,0.0,-11.68494769321461,5.8930147129324695,-48.75
1771616885.057944,0.09446913075087625,1.3888494923981733,-8.411089072555807,0.8749862275267947,-1.163429256948416,9.768438695946127,0.0,0.0,0.0,-11.68494769321461,5.8930147129324695,-48.75
1771616885.0743117,0.09446913075087625,1.3888494923981733,-8.411089072555807,0.8778507695740138,-1.166461219946257,9.768960969593056,-0.0007848578240629405,0.0007575684735052118,0.001090830782496456,-11.964143325910042,6.683694672640439,-48.5
1771616885.0909576,0.09446913075087625,1.3888494923981733,-8.411089072555807,0.8725366199888693,-1.1615095414514953,9.76930853687091,0.0,0.0,0.001090830782496456,-11.964143325910042,6.683694672640439,-48.5
1771616885.1084144,0.09446913075087625,1.3888494923981733,-8.411089072555807,0.8725366199888693,-1.1615095414514953,9.76930853687091,0.0,0.0,0.001090830782496456,-11.964143325910042,6.683694672640439,-48.5
1771616885.1261785,0.09446913075087625,1.3888494923981733,-8.411089072555807,0.8762205831214337,-1.1651836707276837,9.772884950719058,-0.001569715648125881,0.0015151369470104237,-0.001090830782496456,-11.964143325910042,6.683694672640439,-48.5
1771616885.141523,0.09446913075087625,1.3888494923981733,-8.411089072555807,0.8739422573272184,-1.1677124474909264,9.77526501418384,0.0,0.0,0.0,-11.68494769321461,5.8930147129324695,-49.1875
1771616885.157437,0.09446913075087625,1.3888494923981733,-8.411089072555807,0.8748328804012473,-1.1717184588454368,9.776848919832602,0.0007848578240629405,-0.0007575684735052118,0.001090830782496456,-11.68494769321461,5.8930147129324695,-49.1875
1771616885.1749277,0.09446913075087625,1.3888494923981733,-8.411089072555807,0.8748328804012473,-1.1717184588454368,9.776848919832602,0.0007848578240629405,-0.0007575684735052118,0.001090830782496456,-11.68494769321461,5.8930147129324695,-49.1875
1771616885.1915448,0.09446913075087625,1.3888494923981733,-8.411089072555807,0.8754255801081019,-1.1743844146517846,9.774557879641149,0.0,0.0,-0.001090830782496456,-11.68494769321461,5.8930147129324695,-49.1875
1771616885.2077496,0.09446913075087625,1.3888494923981733,-8.411089072555807,0.8827894311427034,-1.168938108141694,9.769688106279013,-0.0007575684735052118,-0.0007848578240629405,0.001090830782496456,-12.702036421718331,5.919220978417767,-48.75
1771616885.2254283,0.09446913075087625,1.3888494923981733,-8.411089072555807,0.8876899917466246,-1.1653136519984588,9.766447326505444,0.0007575684735052118,0.0007848578240629405,0.001090830782496456,-12.702036421718331,5.919220978417767,-48.75
1771616885.4801118,0.09446913075087625,1.3888494923981733,-8.411089072555807,0.8752557063137657,-1.155166794215655,9.753358515140967,5.457870111545735e-05,-0.0030848525951363047,0.0,-12.162407931678798,5.398355263729563,-49.1875
1771616885.4967468,0.09446913075087625,1.3888494923981733,-8.411089072555807,0.8756232812569552,-1.1586395046285012,9.75558016601656,0.0015424262975681524,2.72893505577287e-05,-0.001090830782496456,-12.162407931678798,5.398355263729563,-49.1875
1771616885.5120025,0.09446913075087625,1.3888494923981733,-8.411089072555807,0.8756232812569552,-1.1586395046285012,9.75558016601656,0.0015424262975681524,2.72893505577287e-05,-0.001090830782496456,-12.162407931678798,5.398355263729563,-49.1875
1771616885.5298092,0.09446913075087625,1.3888494923981733,-8.411089072555807,0.8758678982755668,-1.1609505546155334,9.757058649856802,0.0008121471746206692,-0.002299994771073364,0.0,-12.162407931678798,5.398355263729563,-49.1875
1771616885.5454834,0.09446913075087625,1.3888494923981733,-8.411089072555807,0.880676965502621,-1.1576748856867585,9.761387676044055,-0.0007848578240629405,0.0007575684735052118,0.001090830782496456,-11.135937815499412,4.841901895880397,-48.75
1771616885.5607245,0.09446913075087625,1.3888494923981733,-8.411089072555807,0.880676965502621,-1.1576748856867585,9.761387676044055,-0.0007848578240629405,0.0007575684735052118,0.001090830782496456,-11.135937815499412,4.841901895880397,-48.75
1771616885.5783024,0.09446913075087625,1.3888494923981733,-8.411089072555807,0.886284169460937,-1.1578181032731378,9.76426859461328,-0.000839436525178398,0.0038424210686415165,0.0,-11.135937815499412,4.841901895880397,-48.75
1771616885.5955591,0.09446913075087625,1.3888494923981733,-8.411089072555807,0.8853694237249047,-1.162727059856053,9.766185813739131,-0.002327284121631093,0.0007302791229474832,-0.002181661564992912,-11.135937815499412,4.841901895880397,-48.75
1771616885.610611,0.09446913075087625,1.3888494923981733,-8.411089072555807,0.8853694237249047,-1.162727059856053,9.766185813739131,-0.002327284121631093,0.0007302791229474832,-0.002181661564992912,-11.135937815499412,4.841901895880397,-48.75
1771616885.6309273,0.09446913075087625,1.3888494923981733,-8.411089072555807,0.8823538472164422,-1.1636707769584853,9.767461701650644,0.001569715648125881,-0.0015151369470104237,0.0,-11.720535346375573,5.406173086792617,-49.1875
1771616885.6470718,0.09446913075087625,1.3888494923981733,-8.411089072555807,0.8803470147362572,-1.1642988101481433,9.761620567388515,-0.001569715648125881,0.0015151369470104237,-0.001090830782496456,-11.720535346375573,5.406173086792617,-49.1875
1771616885.6623871,0.09446913075087625,1.3888494923981733,-8.411089072555807,0.8837414522448539,-1.1646330744476174,9.764423581201452,2.7289350557728675e-05,-0.0015424262975681524,0.0,-11.720535346375573,5.406173086792617,-49.1875
1771616885.6806464,0.09446913075087625,1.3888494923981733,-8.411089072555807,0.8837414522448539,-1.1646330744476174,9.764423581201452,2.7289350557728675e-05,-0.0015424262975681524,0.0,-11.720535346375573,5.406173086792617,-49.1875
1771616885.6966312,0.09446913075087625,1.3888494923981733,-8.411089072555807,0.8860004124884735,-1.1648555236049407,9.752908508752968,-0.0031121419456940336,0.001487847596452695,-0.002181661564992912,-11.68494769321461,5.8930147129324695,-49.5625
1771616885.7118049,0.09446913075087625,1.3888494923981733,-8.411089072555807,0.8875037252963629,-1.1650035610342193,9.758625803499568,0.0,0.0,0.0,-11.68494769321461,5.8930147129324695,-49.5625
1771616885.7278335,0.09446913075087625,1.3888494923981733,-8.411089072555807,0.8885041631769091,-1.165102078289718,9.769120822701701,2.7289350557728675e-05,-0.0015424262975681524,-0.002181661564992912,-11.68494769321461,5.8930147129324695,-49.5625
1771616885.9904296,0.09446913075087625,1.3888494923981733,-8.411089072555807,0.8856035230759202,-1.1614846089478006,9.762491708839715,0.000839436525178398,-0.0038424210686415165,0.0,-11.352965196619497,4.617056691697258,-48.75
1771616886.0082357,0.09446913075087625,1.3888494923981733,-8.411089072555807,0.8895627384927137,-1.1603534315459643,9.768348427813256,0.0,0.0,0.0,-12.241401061063778,4.8665445967530845,-48.75
1771616886.023867,0.09446913075087625,1.3888494923981733,-8.411089072555807,0.8895627384927137,-1.1603534315459643,9.768348427813256,0.0,0.0,0.0,-12.241401061063778,4.8665445967530845,-48.75
1771616886.0402892,0.09446913075087625,1.3888494923981733,-8.411089072555807,0.8873839052462309,-1.1549543682874022,9.772246008866311,0.001569715648125881,-0.0015151369470104237,0.001090830782496456,-12.241401061063778,4.8665445967530845,-48.75
1771616886.0561104,0.09446913075087625,1.3888494923981733,-8.411089072555807,0.8812876387261392,-1.1561749988793426,9.774839805518287,0.0,0.0,0.0,-12.241401061063778,4.8665445967530845,-48.75
1771616886.072831,0.09446913075087625,1.3888494923981733,-8.411089072555807,0.8772306414567774,-1.1569873149029417,9.77656594821557,-0.0007848578240629405,0.0007575684735052118,-0.001090830782496456,-11.694329080890276,6.423261815296338,-48.375
1771616886.0882103,0.09446913075087625,1.3888494923981733,-8.411089072555807,0.8769375785331586,-1.159851040809342,9.774369565191014,0.0,0.0,0.0,-11.694329080890276,6.423261815296338,-48.375
1771616886.1090028,0.09446913075087625,1.3888494923981733,-8.411089072555807,0.8743357249917051,-1.1594336797432774,9.772907896823378,0.0015424262975681524,2.72893505577287e-05,0.0,-11.694329080890276,6.423261815296338,-48.375
1771616886.1300526,0.09446913075087625,1.3888494923981733,-8.411089072555807,0.8743357249917051,-1.1594336797432774,9.772907896823378,0.0015424262975681524,2.72893505577287e-05,0.0,-11.694329080890276,6.423261815296338,-48.375
1771616886.1460326,0.09446913075087625,1.3888494923981733,-8.411089072555807,0.8750110439639887,-1.1614790692828996,9.771935172852622,-0.0015424262975681524,-2.72893505577287e-05,-0.001090830782496456,-11.622779441639263,4.87748954904136,-49.1875
1771616886.1612446,0.09446913075087625,1.3888494923981733,-8.411089072555807,0.8777835998630958,-1.1604334297335075,9.771287835916123,-0.002354573472188822,0.0022727054205156356,0.0,-11.622779441639263,4.87748954904136,-49.1875
1771616886.1771567,0.09446913075087625,1.3888494923981733,-8.411089072555807,0.879628704842473,-1.1597375682939461,9.77085704041611,0.001569715648125881,-0.0015151369470104237,0.0,-11.622779441639263,4.87748954904136,-49.1875
1771616886.19363,0.09446913075087625,1.3888494923981733,-8.411089072555807,0.879628704842473,-1.1597375682939461,9.77085704041611,0.001569715648125881,-0.0015151369470104237,0.0,-11.622779441639263,4.87748954904136,-49.1875
1771616886.211886,0.09446913075087625,1.3888494923981733,-8.411089072555807,0.8761266394887032,-1.1593581650518523,9.770570350823153,0.0015424262975681524,2.72893505577287e-05,0.002181661564992912,-11.954761938234377,6.153447570276572,-50.0
1771616886.236146,0.09446913075087625,1.3888494923981733,-8.411089072555807,0.8737960541164026,-1.1591056764324508,9.770379562101573,-0.0007575684735052118,-0.0007848578240629405,0.0,-11.954761938234377,6.153447570276572,-50.0
1771616886.5330281,0.09446913075087625,1.3888494923981733,-8.411089072555807,0.8778430466498238,-1.157686008444091,9.754216662096443,0.0007848578240629405,-0.0007575684735052118,0.0,-12.171789319354463,5.928602366093433,-49.5625
1771616886.5530336,0.09446913075087625,1.3888494923981733,-8.411089072555807,0.8796682660149763,-1.1579091901165461,9.75949636493662,-2.7289350557728675e-05,0.0015424262975681524,-0.001090830782496456,-12.171789319354463,5.928602366093433,-49.5625
1771616886.570468,0.09446913075087625,1.3888494923981733,-8.411089072555807,0.8738298283402173,-1.1605482232386277,9.763009948198611,-0.0007848578240629405,0.0007575684735052118,-0.001090830782496456,-11.173463366202073,6.962890305335871,-48.0
1771616886.589011,0.09446913075087625,1.3888494923981733,-8.411089072555807,0.8699444132872872,-1.1623044703014411,9.765348198610171,0.0,0.0,0.0,-11.173463366202073,6.962890305335871,-48.0
1771616886.6076484,0.09446913075087625,1.3888494923981733,-8.411089072555807,0.8673587129724923,-1.1634732331031785,9.770249389846414,0.0007575684735052118,0.0007848578240629405,0.0,-11.173463366202073,6.962890305335871,-48.0
1771616886.6261683,0.09446913075087625,1.3888494923981733,-8.411089072555807,0.8673587129724923,-1.1634732331031785,9.770249389846414,0.0007575684735052118,0.0007848578240629405,0.0,-11.173463366202073,6.962890305335871,-48.0
1771616886.6444464,0.09446913075087625,1.3888494923981733,-8.411089072555807,0.867961096964021,-1.1618442082522862,9.77351107786424,0.0015424262975681524,2.72893505577287e-05,0.0,-11.901975074334697,5.6681695087493305,-48.375
1771616886.6600885,0.09446913075087625,1.3888494923981733,-8.411089072555807,0.8683619767813133,-1.1607601104114174,9.772336583097342,0.0015424262975681524,2.72893505577287e-05,0.0,-11.901975074334697,5.6681695087493305,-48.375
1771616886.675871,0.09446913075087625,1.3888494923981733,-8.411089072555807,0.8687124425942532,-1.1647686175148577,9.764864746535299,0.0007575684735052118,0.0007848578240629405,0.001090830782496456,-11.901975074334697,5.6681695087493305,-48.375
1771616886.6908565,0.09446913075087625,1.3888494923981733,-8.411089072555807,0.868945673677805,-1.167436234214239,9.76658254618378,0.0015424262975681524,2.72893505577287e-05,-0.001090830782496456,-11.47730169977019,6.648107019479477,-49.5625
1771616886.708232,0.09446913075087625,1.3888494923981733,-8.411089072555807,0.8691008863585468,-1.169211503328446,9.767725722660765,0.0,0.0,-0.001090830782496456,-11.47730169977019,6.648107019479477,-49.5625
1771616886.72543,0.09446913075087625,1.3888494923981733,-8.411089072555807,0.8691008863585468,-1.169211503328446,9.767725722660765,0.0,0.0,-0.001090830782496456,-11.47730169977019,6.648107019479477,-49.5625
1771616886.7429774,0.09446913075087625,1.3888494923981733,-8.411089072555807,0.8715273173306008,-1.167986101653383,9.768486493836082,-0.0007848578240629405,0.0007575684735052118,0.0,-11.47730169977019,6.648107019479477,-49.5625
1771616887.0248806,0.09446913075087625,1.3888494923981733,-8.411089072555807,0.8601391634856679,-1.163816178978536,9.768537876418153,-0.0008121471746206692,0.002299994771073364,-0.001090830782496456,-11.622779441639263,4.87748954904136,-48.75
1771616887.046059,0.09446913075087625,1.3888494923981733,-8.411089072555807,0.860749743988679,-1.1597492962345204,9.77237208479659,0.0,0.0,0.0,-11.622779441639263,4.87748954904136,-48.75
1771616887.0623505,0.09446913075087625,1.3888494923981733,-8.411089072555807,0.8635629019323142,-1.159365969865295,9.774923707641527,-0.0008121471746206692,0.002299994771073364,0.0,-11.622779441639263,4.87748954904136,-48.75
1771616887.0792677,0.09446913075087625,1.3888494923981733,-8.411089072555807,0.8635629019323142,-1.159365969865295,9.774923707641527,-0.0008121471746206692,0.002299994771073364,0.0,-11.622779441639263,4.87748954904136,-48.75
1771616887.0975049,0.09446913075087625,1.3888494923981733,-8.411089072555807,0.8654350271187702,-1.1591108704486113,9.773276672434017,-0.0007575684735052118,-0.0007848578240629405,0.0,-11.622779441639263,4.87748954904136,-49.5625
1771616887.1164594,0.09446913075087625,1.3888494923981733,-8.411089072555807,0.8643577668504884,-1.1613479280759682,9.772180588902009,-2.7289350557728675e-05,0.0015424262975681524,-0.001090830782496456,-11.622779441639263,4.87748954904136,-49.5625
1771616887.1332765,0.09446913075087625,1.3888494923981733,-8.411089072555807,0.8636408621757323,-1.162836664937403,9.771451157555513,-0.002354573472188822,0.0022727054205156356,0.0,-11.622779441639263,4.87748954904136,-49.5625
1771616887.1507046,0.09446913075087625,1.3888494923981733,-8.411089072555807,0.8631637701230324,-1.1638274026884075,9.770965729142702,-0.0007302791229474832,-0.002327284121631093,0.0,-11.677129870151557,5.451142127629246,-50.0
1771616887.1671214,0.09446913075087625,1.3888494923981733,-8.411089072555807,0.8631637701230324,-1.1638274026884075,9.770965729142702,-0.0007302791229474832,-0.002327284121631093,0.0,-11.677129870151557,5.451142127629246,-50.0
1771616887.1858299,0.09446913075087625,1.3888494923981733,-8.411089072555807,0.8675762327977999,-1.1644030428217824,9.770642681956566,-0.0015424262975681524,-2.72893505577287e-05,0.002181661564992912,-11.677129870151557,5.451142127629246,-50.0
1771616887.2031882,0.09446913075087625,1.3888494923981733,-8.411089072555807,0.8705126774174201,-1.1647861249002218,9.770427697662868,-0.0007848578240629405,0.0007575684735052118,-0.003272492347489368,-11.677129870151557,5.451142127629246,-50.0
1771616887.2207823,0.09446913075087625,1.3888494923981733,-8.411089072555807,0.8747063024037487,-1.1579042761982314,9.770284628016942,0.0007575684735052118,0.0007848578240629405,0.001090830782496456,-11.937562727495658,5.181327882609478,-49.1875
1771616887.238151,0.09446913075087625,1.3888494923981733,-8.411089072555807,0.8774971129862897,-1.153324482762344,9.763499193351132,0.0,0.0,0.001090830782496456,-11.937562727495658,5.181327882609478,-49.1875
1771616887.2566998,0.09446913075087625,1.3888494923981733,-8.411089072555807,0.8794380510262266,-1.1550066434967778,9.765673785793947,-0.0015424262975681524,-2.72893505577287e-05,-0.002181661564992912,-11.937562727495658,5.181327882609478,-49.1875
1771616887.561816,0.09446913075087625,1.3888494923981733,-8.411089072555807,0.8804776157229894,-1.1687465140768138,9.769459338688767,0.0007848578240629405,-0.0007575684735052118,0.0,-11.937562727495658,5.181327882609478,-48.75
1771616887.579538,0.09446913075087625,1.3888494923981733,-8.411089072555807,0.8815052270757558,-1.1699997951675518,9.769640195936956,0.0015424262975681524,2.72893505577287e-05,0.001090830782496456,-11.937562727495658,5.181327882609478,-48.75
1771616887.5989752,0.09446913075087625,1.3888494923981733,-8.411089072555807,0.8821890909518509,-1.1708338397333709,9.769760554415319,0.0,0.0,-0.001090830782496456,-11.937562727495658,5.181327882609478,-48.75
1771616887.6149397,0.09446913075087625,1.3888494923981733,-8.411089072555807,0.8821890909518509,-1.1708338397333709,9.769760554415319,0.0,0.0,-0.001090830782496456,-11.937562727495658,5.181327882609478,-48.75
1771616887.6315675,0.09446913075087625,1.3888494923981733,-8.411089072555807,0.8826441947221323,-1.1713888870750353,9.766495539930858,0.001569715648125881,-0.0015151369470104237,0.003272492347489368,-11.964143325910042,6.683694672640439,-49.1875
1771616887.6485431,0.09446913075087625,1.3888494923981733,-8.411089072555807,0.8829470611974121,-1.1717582648806277,9.76432270926405,0.0007848578240629405,-0.0007575684735052118,-0.001090830782496456,-11.964143325910042,6.683694672640439,-49.1875
1771616887.6652746,0.09446913075087625,1.3888494923981733,-8.411089072555807,0.8783349685744458,-1.1673578043503097,9.766221826434718,0.0007848578240629405,-0.0007575684735052118,0.0,-11.964143325910042,6.683694672640439,-49.1875
1771616887.6831143,0.09446913075087625,1.3888494923981733,-8.411089072555807,0.880079319333337,-1.1690756243574674,9.767485667697269,0.0023818628227465504,-0.003815131718083788,-0.001090830782496456,-12.996493367610785,5.074190590197504,-49.1875
1771616887.699675,0.09446913075087625,1.3888494923981733,-8.411089072555807,0.8812401652777043,-1.170218814382924,9.764981628232144,0.0007848578240629405,-0.0007575684735052118,0.0,-12.996493367610785,5.074190590197504,-49.1875
1771616887.7177165,0.09446913075087625,1.3888494923981733,-8.411089072555807,0.8812401652777043,-1.170218814382924,9.764981628232144,0.0007848578240629405,-0.0007575684735052118,0.0,-12.996493367610785,5.074190590197504,-49.1875
1771616887.736238,0.09446913075087625,1.3888494923981733,-8.411089072555807,0.882012695286182,-1.1709795945745962,9.759970106232739,0.002327284121631093,-0.0007302791229474832,0.0,-12.996493367610785,5.074190590197504,-49.1875
1771616887.7519279,0.09446913075087625,1.3888494923981733,-8.411089072555807,0.8848499440439579,-1.1690790618541698,9.756634994324504,0.002327284121631093,-0.0007302791229474832,-0.001090830782496456,-11.207487454750424,6.387674162135375,-48.5
1771616887.7679052,0.09446913075087625,1.3888494923981733,-8.411089072555807,0.8796013158522278,-1.1655748246648607,9.761105738019852,-0.0007575684735052118,-0.0007848578240629405,0.0,-11.207487454750424,6.387674162135375,-48.5
1771616888.0778873,0.09446913075087625,1.3888494923981733,-8.411089072555807,0.8733852690187125,-1.1657815174393116,9.757044300304567,0.0007302791229474832,0.002327284121631093,0.0,-11.964143325910042,6.683694672640439,-48.5
1771616888.097556,0.09446913075087625,1.3888494923981733,-8.411089072555807,0.8720553874643914,-1.1681103077991295,9.761378126577338,0.0007575684735052118,0.0007848578240629405,0.0,-11.964143325910042,6.683694672640439,-48.5
1771616888.1162143,0.09446913075087625,1.3888494923981733,-8.411089072555807,0.8710866813730882,-1.1649301296629233,9.760917127842536,-0.001569715648125881,0.0015151369470104237,-0.001090830782496456,-11.964143325910042,6.683694672640439,-48.5
1771616888.131958,0.09446913075087625,1.3888494923981733,-8.411089072555807,0.8710866813730882,-1.1649301296629233,9.760917127842536,-0.001569715648125881,0.0015151369470104237,-0.001090830782496456,-11.964143325910042,6.683694672640439,-48.5
1771616888.1505666,0.09446913075087625,1.3888494923981733,-8.411089072555807,0.8728488417299944,-1.1651368953050554,9.763955450041538,-0.0007848578240629405,0.0007575684735052118,0.001090830782496456,-11.720535346375573,5.406173086792617,-49.1875
1771616888.1714027,0.09446913075087625,1.3888494923981733,-8.411089072555807,0.8763479800355299,-1.1637643528298733,9.767323017628849,0.0,0.0,0.001090830782496456,-11.720535346375573,5.406173086792617,-49.1875
1771616888.1907933,0.09446913075087625,1.3888494923981733,-8.411089072555807,0.8763479800355299,-1.1637643528298733,9.767323017628849,0.0,0.0,0.001090830782496456,-11.720535346375573,5.406173086792617,-49.1875
1771616888.2089512,0.09446913075087625,1.3888494923981733,-8.411089072555807,0.8763501772172924,-1.164361083845241,9.768218498135852,0.0,0.0,0.0,-11.424514835870509,6.162828957952236,-49.1875
1771616888.2301438,0.09446913075087625,1.3888494923981733,-8.411089072555807,0.8740851651094439,-1.1705770395305213,9.769211016681593,-0.001569715648125881,0.0015151369470104237,-0.001090830782496456,-11.424514835870509,6.162828957952236,-49.1875
1771616888.2496326,0.09446913075087625,1.3888494923981733,-8.411089072555807,0.8740851651094439,-1.1705770395305213,9.769211016681593,-0.001569715648125881,0.0015151369470104237,-0.001090830782496456,-11.424514835870509,6.162828957952236,-49.1875
1771616888.2684531,0.09446913075087625,1.3888494923981733,-8.411089072555807,0.8725211604944214,-1.1713016741813378,9.76947494041512,-2.7289350557728675e-05,0.0015424262975681524,0.001090830782496456,-12.224576183254145,6.413880427620673,-48.0
1771616888.5717254,0.09446913075087625,1.3888494923981733,-8.411089072555807,0.8785657508861606,-1.1669649656791945,9.766461781142507,-0.002299994771073364,-0.0008121471746206692,-0.003272492347489368,-10.884886345830976,5.6419632432640325,-48.75
1771616888.593739,0.09446913075087625,1.3888494923981733,-8.411089072555807,0.8801492176111232,-1.1640842325037637,9.764300243167513,-0.001569715648125881,0.0015151369470104237,0.0,-10.884886345830976,5.6419632432640325,-48.75
1771616888.6124446,0.09446913075087625,1.3888494923981733,-8.411089072555807,0.8812029970281035,-1.1621671367554125,9.766206875498435,-0.003896999769756974,0.0022454160699579067,0.0,-10.884886345830976,5.6419632432640325,-48.75
1771616888.6289792,0.09446913075087625,1.3888494923981733,-8.411089072555807,0.8819042754586163,-1.1608913309502473,9.774165941430825,-2.7289350557728675e-05,0.0015424262975681524,-0.002181661564992912,-10.875504958155311,5.111716140900164,-48.75
1771616888.646535,0.09446913075087625,1.3888494923981733,-8.411089072555807,0.8823709684203294,-1.1600422964385948,9.772772387485599,-0.001569715648125881,0.0015151369470104237,-0.001090830782496456,-10.875504958155311,5.111716140900164,-48.75
1771616888.663687,0.09446913075087625,1.3888494923981733,-8.411089072555807,0.8826815473730474,-1.1594772734554268,9.76849988119475,0.0007575684735052118,0.0007848578240629405,0.002181661564992912,-10.875504958155311,5.111716140900164,-48.75
1771616888.6819565,0.09446913075087625,1.3888494923981733,-8.411089072555807,0.8826815473730474,-1.1594772734554268,9.76849988119475,0.0007575684735052118,0.0007848578240629405,0.002181661564992912,-10.875504958155311,5.111716140900164,-48.75
1771616888.7009783,0.09446913075087625,1.3888494923981733,-8.411089072555807,0.882888234196687,-1.1591012569718488,9.765656575985211,-0.0007848578240629405,0.0007575684735052118,0.0,-12.466246265246916,5.083571977873169,-49.1875
1771616888.7195632,0.09446913075087625,1.3888494923981733,-8.411089072555807,0.8783795046352566,-1.163664669081432,9.767109499837384,-0.0015424262975681524,-2.72893505577287e-05,-0.001090830782496456,-12.466246265246916,5.083571977873169,-49.1875
1771616888.7360146,0.09446913075087625,1.3888494923981733,-8.411089072555807,0.8753789954779341,-1.1667015688637061,9.768076404430781,-0.0007575684735052118,-0.0007848578240629405,0.0,-12.466246265246916,5.083571977873169,-49.1875
1771616888.7513988,0.09446913075087625,1.3888494923981733,-8.411089072555807,0.8753789954779341,-1.1667015688637061,9.768076404430781,-0.0007575684735052118,-0.0007848578240629405,0.0,-12.466246265246916,5.083571977873169,-49.1875
1771616888.7683737,0.09446913075087625,1.3888494923981733,-8.411089072555807,0.8733821901516194,-1.1687225917444162,9.768719868636655,0.001569715648125881,-0.0015151369470104237,-0.002181661564992912,-12.162407931678798,5.398355263729563,-48.5
1771616888.7843812,0.09446913075087625,1.3888494923981733,-8.411089072555807,0.8744601619522464,-1.1723906985620836,9.769148086877697,-0.0015424262975681524,-2.72893505577287e-05,-0.003272492347489368,-12.162407931678798,5.398355263729563,-48.5
1771616889.0822883,0.09446913075087625,1.3888494923981733,-8.411089072555807,0.8700598229987796,-1.1598059589197882,9.77302176531807,0.001569715648125881,-0.0015151369470104237,-0.001090830782496456,-11.954761938234377,6.153447570276572,-48.75
1771616889.1010792,0.09446913075087625,1.3888494923981733,-8.411089072555807,0.8697586555131391,-1.1594036782493768,9.778701174478485,-0.0007575684735052118,-0.0007848578240629405,-0.003272492347489368,-11.954761938234377,6.153447570276572,-48.75
1771616889.1169493,0.09446913075087625,1.3888494923981733,-8.411089072555807,0.8695582319157067,-1.1591359649569877,9.779135646124264,-2.7289350557728675e-05,0.0015424262975681524,-0.001090830782496456,-11.954761938234377,6.153447570276572,-48.75
1771616889.134739,0.09446913075087625,1.3888494923981733,-8.411089072555807,0.8695582319157067,-1.1591359649569877,9.779135646124264,-2.7289350557728675e-05,0.0015424262975681524,-0.001090830782496456,-11.954761938234377,6.153447570276572,-48.75
1771616889.1538641,0.09446913075087625,1.3888494923981733,-8.411089072555807,0.8718316756900062,-1.1612809434183158,9.769389447029205,-0.0007848578240629405,0.0007575684735052118,-0.001090830782496456,-11.199669631687371,5.945801576832151,-49.1875
1771616889.1696863,0.09446913075087625,1.3888494923981733,-8.411089072555807,0.8709378036862591,-1.1603852639564904,9.76290346040362,-2.7289350557728675e-05,0.0015424262975681524,0.002181661564992912,-11.199669631687371,5.945801576832151,-49.1875
1771616889.1897233,0.09446913075087625,1.3888494923981733,-8.411089072555807,0.8727497652924823,-1.1621123379469007,9.76527733217215,2.7289350557728675e-05,-0.0015424262975681524,-0.002181661564992912,-11.199669631687371,5.945801576832151,-49.1875
1771616889.208319,0.09446913075087625,1.3888494923981733,-8.411089072555807,0.8715487820609741,-1.1609385477279783,9.766857117316222,-0.0007575684735052118,-0.0007848578240629405,0.001090830782496456,-11.937562727495658,5.181327882609478,-48.75
1771616889.2250113,0.09446913075087625,1.3888494923981733,-8.411089072555807,0.8730726798031269,-1.157750580009869,9.767908446682245,0.0,0.0,0.0,-11.937562727495658,5.181327882609478,-48.75
1771616889.2426243,0.09446913075087625,1.3888494923981733,-8.411089072555807,0.8730726798031269,-1.157750580009869,9.767908446682245,0.0,0.0,0.0,-11.937562727495658,5.181327882609478,-48.75
1771616889.2603493,0.09446913075087625,1.3888494923981733,-8.411089072555807,0.8740868167274763,-1.1556290231054,9.768608094631215,0.0007848578240629405,-0.0007575684735052118,-0.001090830782496456,-11.937562727495658,5.181327882609478,-48.75
1771616889.2769759,0.09446913075087625,1.3888494923981733,-8.411089072555807,0.8724385748551194,-1.1566239741243318,9.769073702525676,-2.7289350557728675e-05,0.0015424262975681524,0.0,-11.424514835870509,6.162828957952236,-48.75
1771616889.2924013,0.09446913075087625,1.3888494923981733,-8.411089072555807,0.871341688301134,-1.1572861029130999,9.769383559378257,5.457870111545735e-05,-0.0030848525951363047,0.001090830782496456,-11.424514835870509,6.162828957952236,-48.75
1771616889.5791643,0.09446913075087625,1.3888494923981733,-8.411089072555807,0.870100172655854,-1.177852567646928,9.76778757022174,-0.002299994771073364,-0.0008121471746206692,-0.002181661564992912,-11.945380550558713,5.623200467912702,-49.5625
1771616889.597241,0.09446913075087625,1.3888494923981733,-8.411089072555807,0.8675460538649801,-1.1785502803093446,9.76518254098971,0.0015424262975681524,2.72893505577287e-05,-0.002181661564992912,-11.945380550558713,5.623200467912702,-49.5625
1771616889.612611,0.09446913075087625,1.3888494923981733,-8.411089072555807,0.8704925936747492,-1.1742009534131967,9.763448923135876,-0.0007575684735052118,-0.0007848578240629405,0.0,-11.901975074334697,5.6681695087493305,-50.375
1771616889.6304061,0.09446913075087625,1.3888494923981733,-8.411089072555807,0.8704925936747492,-1.1742009534131967,9.763448923135876,-0.0007575684735052118,-0.0007848578240629405,0.0,-11.901975074334697,5.6681695087493305,-50.375
1771616889.6464746,0.09446913075087625,1.3888494923981733,-8.411089072555807,0.8724534830031442,-1.1713065249489751,9.76564033152725,-0.0007848578240629405,0.0007575684735052118,-0.001090830782496456,-11.901975074334697,5.6681695087493305,-50.375
1771616889.6640596,0.09446913075087625,1.3888494923981733,-8.411089072555807,0.8714352942797623,-1.1717871385784326,9.773788912746712,-0.0007848578240629405,0.0007575684735052118,-0.001090830782496456,-11.901975074334697,5.6681695087493305,-50.375
1771616889.6797552,0.09446913075087625,1.3888494923981733,-8.411089072555807,0.8714352942797623,-1.1717871385784326,9.773788912746712,-0.0007848578240629405,0.0007575684735052118,-0.001090830782496456,-11.901975074334697,5.6681695087493305,-50.375
1771616889.700002,0.09446913075087625,1.3888494923981733,-8.411089072555807,0.870757701058265,-1.1721069815800307,9.779211702522646,-0.0031121419456940336,0.001487847596452695,-0.002181661564992912,-11.460102489031472,5.675987331812385,-48.5
1771616889.7155526,0.09446913075087625,1.3888494923981733,-8.411089072555807,0.8703067703385708,-1.1723198335247138,9.782820508542,-0.001569715648125881,0.0015151369470104237,-0.001090830782496456,-11.460102489031472,5.675987331812385,-48.5
1771616889.7309875,0.09446913075087625,1.3888494923981733,-8.411089072555807,0.8723298196487002,-1.1700546606766757,9.778531905220238,-0.0007575684735052118,-0.0007848578240629405,0.0,-11.460102489031472,5.675987331812385,-48.5
1771616889.747312,0.09446913075087625,1.3888494923981733,-8.411089072555807,0.8736761363656498,-1.1685472134499453,9.775677887616443,-0.0007848578240629405,0.0007575684735052118,-0.002181661564992912,-11.199669631687371,5.945801576832151,-49.1875
1771616889.7648737,0.09446913075087625,1.3888494923981733,-8.411089072555807,0.872165271661924,-1.1652208854929853,9.773778570782582,-0.0015424262975681524,-2.72893505577287e-05,-0.001090830782496456,-11.199669631687371,5.945801576832151,-49.1875
1771616889.7825143,0.09446913075087625,1.3888494923981733,-8.411089072555807,0.872165271661924,-1.1652208854929853,9.773778570782582,-0.0015424262975681524,-2.72893505577287e-05,-0.001090830782496456,-11.199669631687371,5.945801576832151,-49.1875
1771616889.802153,0.09446913075087625,1.3888494923981733,-8.411089072555807,0.8711598080790594,-1.1630072513951464,9.775859708353726,2.7289350557728675e-05,-0.0015424262975681524,0.001090830782496456,-11.199669631687371,5.945801576832151,-49.1875
1771616890.0944116,0.09446913075087625,1.3888494923981733,-8.411089072555807,0.8784798267033176,-1.1628884048876853,9.773987401564662,0.0007848578240629405,-0.0007575684735052118,-0.002181661564992912,-11.460102489031472,5.675987331812385,-48.0
1771616890.1108792,0.09446913075087625,1.3888494923981733,-8.411089072555807,0.8752783891482524,-1.1567250495014627,9.772653571199088,0.0007848578240629405,-0.0007575684735052118,0.001090830782496456,-11.460102489031472,5.675987331812385,-48.0
1771616890.1264029,0.09446913075087625,1.3888494923981733,-8.411089072555807,0.8755546916572695,-1.154946544007982,9.77176592199066,-2.7289350557728675e-05,0.0015424262975681524,0.001090830782496456,-11.460102489031472,5.675987331812385,-48.0
1771616890.1462374,0.09446913075087625,1.3888494923981733,-8.411089072555807,0.8755546916572695,-1.154946544007982,9.77176592199066,-2.7289350557728675e-05,0.0015424262975681524,0.001090830782496456,-11.460102489031472,5.675987331812385,-48.0
1771616890.1636016,0.09446913075087625,1.3888494923981733,-8.411089072555807,0.8710922905567997,-1.1585766153483035,9.771175201358142,0.0007848578240629405,-0.0007575684735052118,0.002181661564992912,-11.405752060519179,5.102334753224499,-49.1875
1771616890.180143,0.09446913075087625,1.3888494923981733,-8.411089072555807,0.8681226124727236,-1.1609923872747339,9.770782083375984,0.001569715648125881,-0.0015151369470104237,0.0,-11.405752060519179,5.102334753224499,-49.1875
1771616890.1969225,0.09446913075087625,1.3888494923981733,-8.411089072555807,0.8684694635481086,-1.16019323306632,9.763830244335635,0.002327284121631093,-0.0007302791229474832,0.002181661564992912,-11.405752060519179,5.102334753224499,-49.1875
1771616890.2120829,0.09446913075087625,1.3888494923981733,-8.411089072555807,0.8684694635481086,-1.16019323306632,9.763830244335635,0.002327284121631093,-0.0007302791229474832,0.002181661564992912,-11.405752060519179,5.102334753224499,-49.1875
1771616890.2340248,0.09446913075087625,1.3888494923981733,-8.411089072555807,0.8687002890641967,-1.1596614048677583,9.759203873111414,0.0007848578240629405,-0.0007575684735052118,-0.001090830782496456,-11.901975074334697,5.6681695087493305,-48.375
1771616890.2497296,0.09446913075087625,1.3888494923981733,-8.411089072555807,0.8688539008666635,-1.1593074791425255,9.752779963034326,0.001569715648125881,-0.0015151369470104237,-0.001090830782496456,-11.901975074334697,5.6681695087493305,-48.375
1771616890.2656097,0.09446913075087625,1.3888494923981733,-8.411089072555807,0.8736860899116211,-1.15898826075334,9.748504922637803,-0.0007848578240629405,0.0007575684735052118,0.001090830782496456,-11.901975074334697,5.6681695087493305,-48.375
1771616890.2809641,0.09446913075087625,1.3888494923981733,-8.411089072555807,0.8736860899116211,-1.15898826075334,9.748504922637803,-0.0007848578240629405,0.0007575684735052118,0.001090830782496456,-11.901975074334697,5.6681695087493305,-48.375
1771616890.29859,0.09446913075087625,1.3888494923981733,-8.411089072555807,0.872793923863821,-1.161902074562615,9.774967963474372,-0.0008121471746206692,0.002299994771073364,0.001090830782496456,-11.937562727495658,5.181327882609478,-48.0
1771616890.3162093,0.09446913075087625,1.3888494923981733,-8.411089072555807,0.872793923863821,-1.161902074562615,9.774967963474372,-0.0008121471746206692,0.002299994771073364,0.001090830782496456,-11.937562727495658,5.181327882609478,-48.0
1771616890.6167006,0.09446913075087625,1.3888494923981733,-8.411089072555807,0.8797148262935066,-1.1569680761401138,9.773894711863392,0.0007848578240629405,-0.0007575684735052118,0.001090830782496456,-12.432222176698565,5.658788121073665,-48.75
1771616890.6340816,0.09446913075087625,1.3888494923981733,-8.411089072555807,0.8809139144586986,-1.1574314141880788,9.775936998945625,-0.0007848578240629405,0.0007575684735052118,-0.001090830782496456,-12.432222176698565,5.658788121073665,-48.75
1771616890.6492422,0.09446913075087625,1.3888494923981733,-8.411089072555807,0.8793050707984289,-1.1554166218163144,9.777296118185008,-0.0007302791229474832,-0.002327284121631093,0.001090830782496456,-12.432222176698565,5.658788121073665,-48.75
1771616890.667445,0.09446913075087625,1.3888494923981733,-8.411089072555807,0.8793050707984289,-1.1554166218163144,9.777296118185008,-0.0007302791229474832,-0.002327284121631093,0.001090830782496456,-12.432222176698565,5.658788121073665,-48.75
1771616890.686393,0.09446913075087625,1.3888494923981733,-8.411089072555807,0.8806412267539931,-1.1563989386664706,9.778200596856461,0.0031121419456940336,-0.001487847596452695,0.0,-11.362346584295162,5.147303794061127,-48.75
1771616890.704974,0.09446913075087625,1.3888494923981733,-8.411089072555807,0.876800461510209,-1.157136344329704,9.772112293893986,-0.001569715648125881,0.0015151369470104237,-0.002181661564992912,-11.362346584295162,5.147303794061127,-48.75
1771616890.7252526,0.09446913075087625,1.3888494923981733,-8.411089072555807,0.8790581220236544,-1.1622733568949442,9.774750819697898,-0.0007575684735052118,-0.0007848578240629405,-0.001090830782496456,-11.362346584295162,5.147303794061127,-48.75
1771616890.7411473,0.09446913075087625,1.3888494923981733,-8.411089072555807,0.8781537464361197,-1.1633688427060616,9.779851840853457,-0.0007575684735052118,-0.0007848578240629405,0.001090830782496456,-11.199669631687371,5.945801576832151,-49.5625
1771616890.7567568,0.09446913075087625,1.3888494923981733,-8.411089072555807,0.8775518945851524,-1.1640978762759817,9.783246513450342,-0.0007848578240629405,0.0007575684735052118,0.0,-11.199669631687371,5.945801576832151,-49.5625
1771616890.774466,0.09446913075087625,1.3888494923981733,-8.411089072555807,0.8775518945851524,-1.1640978762759817,9.783246513450342,-0.0007848578240629405,0.0007575684735052118,0.0,-11.199669631687371,5.945801576832151,-49.5625
1771616890.7927816,0.09446913075087625,1.3888494923981733,-8.411089072555807,0.8771513689014594,-1.1645830399729251,9.782160518435271,-0.0015424262975681524,-2.72893505577287e-05,-0.001090830782496456,-11.199669631687371,5.945801576832151,-49.5625
1771616890.8086874,0.09446913075087625,1.3888494923981733,-8.411089072555807,0.8744780000936144,-1.1625827723267477,9.7814378008841,-0.0015424262975681524,-2.72893505577287e-05,0.0,-10.982642250567286,6.17064678101529,-48.75
1771616890.8253522,0.09446913075087625,1.3888494923981733,-8.411089072555807,0.8773451803491992,-1.1564379696736453,9.767576393597803,0.0007848578240629405,-0.0007575684735052118,0.0,-10.982642250567286,6.17064678101529,-48.75
1771616891.1218388,0.09446913075087625,1.3888494923981733,-8.411089072555807,0.8811726717687415,-1.1561180568561353,9.776710197942453,0.0007848578240629405,-0.0007575684735052118,-0.001090830782496456,-11.677129870151557,5.451142127629246,-49.5625
1771616891.1396525,0.09446913075087625,1.3888494923981733,-8.411089072555807,0.8842072330041261,-1.154458912410416,9.777810673480198,0.0,0.0,0.0,-11.677129870151557,5.451142127629246,-49.5625
1771616891.1553965,0.09446913075087625,1.3888494923981733,-8.411089072555807,0.8842072330041261,-1.154458912410416,9.777810673480198,0.0,0.0,0.0,-11.677129870151557,5.451142127629246,-49.5625
1771616891.1731308,0.09446913075087625,1.3888494923981733,-8.411089072555807,0.8839035609411446,-1.1557615937551602,9.768507692535493,-0.001569715648125881,0.0015151369470104237,0.0,-12.162407931678798,5.398355263729563,-48.75
1771616891.1902688,0.09446913075087625,1.3888494923981733,-8.411089072555807,0.8837014705754698,-1.1566285136381833,9.762316662637899,-0.0015424262975681524,-2.72893505577287e-05,-0.001090830782496456,-12.162407931678798,5.398355263729563,-48.75
1771616891.2060905,0.09446913075087625,1.3888494923981733,-8.411089072555807,0.8835669816946105,-1.1572054391362057,9.758196601399385,2.7289350557728675e-05,-0.0015424262975681524,0.001090830782496456,-12.162407931678798,5.398355263729563,-48.75
1771616891.2230167,0.09446913075087625,1.3888494923981733,-8.411089072555807,0.8834774808467378,-1.1575893766104595,9.758799858376573,2.7289350557728675e-05,-0.0015424262975681524,0.002181661564992912,-11.352965196619497,4.617056691697258,-49.1875
1771616891.241544,0.09446913075087625,1.3888494923981733,-8.411089072555807,0.8834179190322685,-1.1578448827107126,9.75920131915607,0.002327284121631093,-0.0007302791229474832,0.001090830782496456,-11.352965196619497,4.617056691697258,-49.1875
1771616891.259508,0.09446913075087625,1.3888494923981733,-8.411089072555807,0.8834179190322685,-1.1578448827107126,9.75920131915607,0.002327284121631093,-0.0007302791229474832,0.001090830782496456,-11.352965196619497,4.617056691697258,-49.1875
1771616891.2768981,0.09446913075087625,1.3888494923981733,-8.411089072555807,0.8810551426432285,-1.1604217426057535,9.759468486820214,0.0,0.0,0.0,-11.352965196619497,4.617056691697258,-49.1875
1771616891.2927115,0.09446913075087625,1.3888494923981733,-8.411089072555807,0.8770759179107517,-1.1598134754136322,9.759646283916243,-0.0007575684735052118,-0.0007848578240629405,0.0,-11.694329080890276,6.423261815296338,-48.0
1771616891.3088946,0.09446913075087625,1.3888494923981733,-8.411089072555807,0.8744277883021411,-1.1594086803920653,9.759764605897528,-0.0007848578240629405,0.0007575684735052118,0.0,-11.694329080890276,6.423261815296338,-48.0
1771616891.3290768,0.09446913075087625,1.3888494923981733,-8.411089072555807,0.8726654876291567,-1.1591392938270693,9.75984334785433,0.0,0.0,0.002181661564992912,-11.694329080890276,6.423261815296338,-48.0
1771616891.6575468,0.09446913075087625,1.3888494923981733,-8.411089072555807,0.8793047609267133,-1.1564549614391337,9.776406644950898,0.0015424262975681524,2.72893505577287e-05,0.0,-11.460102489031472,5.675987331812385,-49.1875
1771616891.6748614,0.09446913075087625,1.3888494923981733,-8.411089072555807,0.8759110584314558,-1.157173626859096,9.777608662355227,-0.0015424262975681524,-2.72893505577287e-05,0.0,-11.460102489031472,5.675987331812385,-49.1875
1771616891.6905437,0.09446913075087625,1.3888494923981733,-8.411089072555807,0.8759110584314558,-1.157173626859096,9.777608662355227,-0.0015424262975681524,-2.72893505577287e-05,0.0,-11.460102489031472,5.675987331812385,-49.1875
1771616891.708422,0.09446913075087625,1.3888494923981733,-8.411089072555807,0.8760594107705151,-1.1599750293349216,9.778408591510395,0.0,0.0,0.0,-11.460102489031472,5.675987331812385,-49.1875
1771616891.727075,0.09446913075087625,1.3888494923981733,-8.411089072555807,0.876158137594955,-1.1618393313888677,9.778940935427366,2.7289350557728675e-05,-0.0015424262975681524,0.001090830782496456,-12.171789319354463,5.928602366093433,-48.5
1771616891.7440715,0.09446913075087625,1.3888494923981733,-8.411089072555807,0.8714938770873966,-1.163163688352803,9.779295204357439,0.0007575684735052118,0.0007848578240629405,-0.002181661564992912,-12.171789319354463,5.928602366093433,-48.5
1771616891.7593715,0.09446913075087625,1.3888494923981733,-8.411089072555807,0.8714938770873966,-1.163163688352803,9.779295204357439,0.0007575684735052118,0.0007848578240629405,-0.002181661564992912,-12.171789319354463,5.928602366093433,-48.5
1771616891.775585,0.09446913075087625,1.3888494923981733,-8.411089072555807,0.8683898638228204,-1.1640450331182652,9.77618585466564,0.0007575684735052118,0.0007848578240629405,-0.001090830782496456,-12.171789319354463,5.928602366093433,-48.5
1771616891.7918477,0.09446913075087625,1.3888494923981733,-8.411089072555807,0.8710541397757171,-1.1645478734417616,9.774116617179459,0.0015424262975681524,2.72893505577287e-05,0.001090830782496456,-11.68494769321461,5.8930147129324695,-48.5
1771616891.8077157,0.09446913075087625,1.3888494923981733,-8.411089072555807,0.8710541397757171,-1.1645478734417616,9.774116617179459,0.0015424262975681524,2.72893505577287e-05,0.001090830782496456,-11.68494769321461,5.8930147129324695,-48.5
1771616891.8252196,0.09446913075087625,1.3888494923981733,-8.411089072555807,0.8728271856604574,-1.1648825080599539,9.772739562747303,0.0,0.0,0.001090830782496456,-11.68494769321461,5.8930147129324695,-48.5
1771616891.8416417,0.09446913075087625,1.3888494923981733,-8.411089072555807,0.8716003044510194,-1.1627820649933875,9.771823148405408,-2.7289350557728675e-05,0.0015424262975681524,-0.002181661564992912,-11.68494769321461,5.8930147129324695,-48.5
1771616892.1420786,0.09446913075087625,1.3888494923981733,-8.411089072555807,0.8723880437930961,-1.1702708489143918,9.759881305086125,-0.0007848578240629405,0.0007575684735052118,0.0,-11.460102489031472,5.675987331812385,-48.5
1771616892.1595452,0.09446913075087625,1.3888494923981733,-8.411089072555807,0.873714883883339,-1.1686910843071645,9.773301456690003,-0.0031121419456940336,0.001487847596452695,-0.002181661564992912,-11.460102489031472,5.675987331812385,-48.5
1771616892.1782818,0.09446913075087625,1.3888494923981733,-8.411089072555807,0.873714883883339,-1.1686910843071645,9.773301456690003,-0.0031121419456940336,0.001487847596452695,-0.002181661564992912,-11.460102489031472,5.675987331812385,-48.5
1771616892.1976206,0.09446913075087625,1.3888494923981733,-8.411089072555807,0.8721910577021081,-1.1653166299413218,9.782232417669467,0.0007575684735052118,0.0007848578240629405,-0.001090830782496456,-11.460102489031472,5.675987331812385,-48.5
1771616892.2131155,0.09446913075087625,1.3888494923981733,-8.411089072555807,0.8735001070676125,-1.1606641448164663,9.781485649021292,-0.0007302791229474832,-0.002327284121631093,0.002181661564992912,-11.424514835870509,6.162828957952236,-48.75
1771616892.233968,0.09446913075087625,1.3888494923981733,-8.411089072555807,0.8697249874635966,-1.162381614816564,9.777643571120564,-0.001569715648125881,0.0015151369470104237,0.0,-11.424514835870509,6.162828957952236,-48.75
1771616892.2513735,0.09446913075087625,1.3888494923981733,-8.411089072555807,0.8672126875379732,-1.163524571916232,9.765051376074492,-0.002327284121631093,0.0007302791229474832,-0.002181661564992912,-11.424514835870509,6.162828957952236,-48.75
1771616892.270718,0.09446913075087625,1.3888494923981733,-8.411089072555807,0.8672126875379732,-1.163524571916232,9.765051376074492,-0.002327284121631093,0.0007302791229474832,-0.002181661564992912,-11.424514835870509,6.162828957952236,-48.75
1771616892.2894251,0.09446913075087625,1.3888494923981733,-8.411089072555807,0.8679476034412122,-1.1666083357652532,9.760016522642687,0.0015424262975681524,2.72893505577287e-05,0.001090830782496456,-11.68494769321461,5.8930147129324695,-48.5
1771616892.3056545,0.09446913075087625,1.3888494923981733,-8.411089072555807,0.866029858325757,-1.166337407492018,9.756665883926818,0.0015424262975681524,2.72893505577287e-05,0.0,-11.68494769321461,5.8930147129324695,-48.5
1771616892.3214493,0.09446913075087625,1.3888494923981733,-8.411089072555807,0.864753620374038,-1.1661571077526471,9.757781182997814,2.7289350557728675e-05,-0.0015424262975681524,-0.001090830782496456,-11.68494769321461,5.8930147129324695,-48.5
1771616892.3380387,0.09446913075087625,1.3888494923981733,-8.411089072555807,0.8639042982736811,-1.1660371202901758,9.758523402070855,0.002354573472188822,-0.0022727054205156356,0.0,-11.945380550558713,5.623200467912702,-47.5625
1771616892.3531775,0.09446913075087625,1.3888494923981733,-8.411089072555807,0.8656622225703029,-1.1635504465347364,9.759017340572834,-2.7289350557728675e-05,0.0015424262975681524,0.0,-11.945380550558713,5.623200467912702,-47.5625
1771616892.6595006,0.09446913075087625,1.3888494923981733,-8.411089072555807,0.8787936466939602,-1.1572384589736677,9.764917271960948,-0.0015424262975681524,-2.72893505577287e-05,-0.002181661564992912,-11.937562727495658,5.181327882609478,-50.0
1771616892.6772187,0.09446913075087625,1.3888494923981733,-8.411089072555807,0.8802171949527982,-1.1528813888370626,9.773307724682443,-0.0030848525951363047,-5.45787011154574e-05,-0.001090830782496456,-11.937562727495658,5.181327882609478,-50.0
1771616892.6943378,0.09446913075087625,1.3888494923981733,-8.411089072555807,0.8802171949527982,-1.1528813888370626,9.773307724682443,-0.0030848525951363047,-5.45787011154574e-05,-0.001090830782496456,-11.937562727495658,5.181327882609478,-50.0
1771616892.7127907,0.09446913075087625,1.3888494923981733,-8.411089072555807,0.8765182730832592,-1.1547954542118393,9.77220125382646,-0.000839436525178398,0.0038424210686415165,0.0,-11.901975074334697,5.6681695087493305,-49.1875
1771616892.7322695,0.09446913075087625,1.3888494923981733,-8.411089072555807,0.8763798205656056,-1.1536624198977292,9.771464909831892,-0.00159700499868361,0.0030575632445785763,-0.001090830782496456,-11.901975074334697,5.6681695087493305,-49.1875
1771616892.749302,0.09446913075087625,1.3888494923981733,-8.411089072555807,0.8787781901738881,-1.1599614989917437,9.770974881129009,0.0,0.0,0.001090830782496456,-11.901975074334697,5.6681695087493305,-49.1875
1771616892.7674878,0.09446913075087625,1.3888494923981733,-8.411089072555807,0.8803742783566563,-1.1641534657634862,9.77064877250122,0.001569715648125881,-0.0015151369470104237,-0.001090830782496456,-11.68494769321461,5.8930147129324695,-48.375
1771616892.784163,0.09446913075087625,1.3888494923981733,-8.411089072555807,0.8766228103337902,-1.1622968954890245,9.76374152743766,0.002327284121631093,-0.0007302791229474832,0.0,-11.68494769321461,5.8930147129324695,-48.375
1771616892.8025327,0.09446913075087625,1.3888494923981733,-8.411089072555807,0.8766228103337902,-1.1622968954890245,9.76374152743766,0.002327284121631093,-0.0007302791229474832,0.0,-11.68494769321461,5.8930147129324695,-48.375
1771616892.821492,0.09446913075087625,1.3888494923981733,-8.411089072555807,0.8741262502712165,-1.1610613687106188,9.759144833006843,-0.0007575684735052118,-0.0007848578240629405,-0.001090830782496456,-11.68494769321461,5.8930147129324695,-48.375
1771616892.838505,0.09446913075087625,1.3888494923981733,-8.411089072555807,0.8724648174379771,-1.1602391394413285,9.762776007626215,0.0015424262975681524,2.72893505577287e-05,0.0,-11.68494769321461,5.8930147129324695,-48.75
1771616892.8557096,0.09446913075087625,1.3888494923981733,-8.411089072555807,0.8737659758863895,-1.1620150937143783,9.768537625479848,-0.002327284121631093,0.0007302791229474832,-0.001090830782496456,-11.68494769321461,5.8930147129324695,-48.75
1771616893.1621432,0.09446913075087625,1.3888494923981733,-8.411089072555807,0.8674722570846821,-1.1559042792631833,9.776500882913686,2.7289350557728675e-05,-0.0015424262975681524,-0.001090830782496456,-11.677129870151557,5.451142127629246,-48.5
1771616893.1803966,0.09446913075087625,1.3888494923981733,-8.411089072555807,0.8657135206354528,-1.1592139774620362,9.774326264959438,0.0007848578240629405,-0.0007575684735052118,-0.001090830782496456,-11.677129870151557,5.451142127629246,-48.5
1771616893.1987412,0.09446913075087625,1.3888494923981733,-8.411089072555807,0.8739193406149558,-1.156519212989944,9.77287908100296,2.7289350557728675e-05,-0.0015424262975681524,-0.001090830782496456,-12.466246265246916,5.083571977873169,-48.75
1771616893.215578,0.09446913075087625,1.3888494923981733,-8.411089072555807,0.8770570834794399,-1.1571327007757706,9.771915996246028,0.0007848578240629405,-0.0007575684735052118,0.001090830782496456,-12.466246265246916,5.083571977873169,-48.75
1771616893.2358801,0.09446913075087625,1.3888494923981733,-8.411089072555807,0.8770570834794399,-1.1571327007757706,9.771915996246028,0.0007848578240629405,-0.0007575684735052118,0.001090830782496456,-12.466246265246916,5.083571977873169,-48.75
1771616893.256874,0.09446913075087625,1.3888494923981733,-8.411089072555807,0.8791452163048697,-1.1575409700441306,9.767929962391332,2.7289350557728675e-05,-0.0015424262975681524,-0.001090830782496456,-12.466246265246916,5.083571977873169,-48.75
1771616893.2750983,0.09446913075087625,1.3888494923981733,-8.411089072555807,0.8734817446009893,-1.1603031768937226,9.761932189680628,-0.001569715648125881,0.0015151369470104237,0.0,-11.199669631687371,5.945801576832151,-48.5
1771616893.291953,0.09446913075087625,1.3888494923981733,-8.411089072555807,0.8697127674471812,-1.162141394696254,9.757940738941166,-0.003896999769756974,0.0022454160699579067,-0.002181661564992912,-11.199669631687371,5.945801576832151,-48.5
1771616893.3080823,0.09446913075087625,1.3888494923981733,-8.411089072555807,0.8671208704809026,-1.1586347460032282,9.761974696476118,-0.0007575684735052118,-0.0007848578240629405,-0.003272492347489368,-11.199669631687371,5.945801576832151,-48.5
1771616893.3238199,0.09446913075087625,1.3888494923981733,-8.411089072555807,0.8677191306700901,-1.1538942870303395,9.76465925015337,-0.0008121471746206692,0.002299994771073364,0.001090830782496456,-12.162407931678798,5.398355263729563,-49.1875
1771616893.340918,0.09446913075087625,1.3888494923981733,-8.411089072555807,0.8677191306700901,-1.1538942870303395,9.76465925015337,-0.0008121471746206692,0.002299994771073364,0.001090830782496456,-12.162407931678798,5.398355263729563,-49.1875
1771616893.3588264,0.09446913075087625,1.3888494923981733,-8.411089072555807,0.8681172661429902,-1.1507395645382787,9.766445790637153,-0.0007848578240629405,0.0007575684735052118,0.001090830782496456,-12.162407931678798,5.398355263729563,-49.1875
1771616893.6573372,0.09446913075087625,1.3888494923981733,-8.411089072555807,0.8750511613832651,-1.163184853196078,9.76852806436957,0.002327284121631093,-0.0007302791229474832,0.002181661564992912,-11.460102489031472,5.675987331812385,-48.375
1771616893.674557,0.09446913075087625,1.3888494923981733,-8.411089072555807,0.8754871588906237,-1.1639754333123853,9.76567533157323,0.0015151369470104237,0.001569715648125881,0.0,-11.460102489031472,5.675987331812385,-48.375
1771616893.6907942,0.09446913075087625,1.3888494923981733,-8.411089072555807,0.8710473482549874,-1.164585240321082,9.767121981471696,0.0015424262975681524,2.72893505577287e-05,0.001090830782496456,-11.460102489031472,5.675987331812385,-48.375
1771616893.7066987,0.09446913075087625,1.3888494923981733,-8.411089072555807,0.8680927038729059,-1.1649910600733788,9.768084710818988,0.0007575684735052118,0.0007848578240629405,0.001090830782496456,-11.460102489031472,5.675987331812385,-48.375
1771616893.7242026,0.09446913075087625,1.3888494923981733,-8.411089072555807,0.8680927038729059,-1.1649910600733788,9.768084710818988,0.0007575684735052118,0.0007848578240629405,0.001090830782496456,-11.460102489031472,5.675987331812385,-48.375
1771616893.7400103,0.09446913075087625,1.3888494923981733,-8.411089072555807,0.8660427362695182,-1.1605311664788567,9.7653802847379,-0.0007848578240629405,0.0007575684735052118,0.0,-11.901975074334697,5.6681695087493305,-48.375
1771616893.7576137,0.09446913075087625,1.3888494923981733,-8.411089072555807,0.8670853291686149,-1.1598862957788378,9.763580519391354,0.0007302791229474832,0.002327284121631093,0.001090830782496456,-11.901975074334697,5.6681695087493305,-48.375
1771616893.7727582,0.09446913075087625,1.3888494923981733,-8.411089072555807,0.8653723396569255,-1.1571340028647932,9.762382795657924,-2.7289350557728675e-05,0.0015424262975681524,0.0,-11.901975074334697,5.6681695087493305,-48.375
1771616893.7926161,0.09446913075087625,1.3888494923981733,-8.411089072555807,0.8642323642722427,-1.1553023826756228,9.761585723892777,0.0014878475964526952,0.0031121419456940336,0.003272492347489368,-11.145319203175077,5.372148998244266,-48.75
1771616893.8081937,0.09446913075087625,1.3888494923981733,-8.411089072555807,0.8634737233880959,-1.154083459900268,9.757710169829627,0.0015424262975681524,2.72893505577287e-05,0.0,-11.145319203175077,5.372148998244266,-48.75
1771616893.8261845,0.09446913075087625,1.3888494923981733,-8.411089072555807,0.86296885635427,-1.153272280409529,9.755131031893377,0.0015151369470104237,0.001569715648125881,0.002181661564992912,-11.145319203175077,5.372148998244266,-48.75
1771616893.8439958,0.09446913075087625,1.3888494923981733,-8.411089072555807,0.86296885635427,-1.153272280409529,9.755131031893377,0.0015151369470104237,0.001569715648125881,0.002181661564992912,-11.145319203175077,5.372148998244266,-48.75
1771616893.8598917,0.09446913075087625,1.3888494923981733,-8.411089072555807,0.8650396964225057,-1.1550555881867706,9.7601048678223,-0.0030848525951363047,-5.45787011154574e-05,0.0,-10.398044719691125,5.606375590103069,-49.1875
1771616894.17316,0.09446913075087625,1.3888494923981733,-8.411089072555807,0.8694380190553536,-1.1608560428670807,9.760077160522691,-0.0015151369470104237,-0.001569715648125881,0.002181661564992912,-11.954761938234377,6.153447570276572,-49.1875
1771616894.196763,0.09446913075087625,1.3888494923981733,-8.411089072555807,0.8741584988138192,-1.164748774719813,9.763396461173231,0.001569715648125881,-0.0015151369470104237,0.0,-11.954761938234377,6.153447570276572,-49.1875
1771616894.2123554,0.09446913075087625,1.3888494923981733,-8.411089072555807,0.8772999253618641,-1.1673393442831426,9.765605418677147,-0.0030848525951363047,-5.45787011154574e-05,-0.001090830782496456,-11.677129870151557,5.451142127629246,-49.1875
1771616894.234987,0.09446913075087625,1.3888494923981733,-8.411089072555807,0.8793905096375543,-1.1690633393889802,9.763730343513012,-0.0007848578240629405,0.0007575684735052118,0.001090830782496456,-11.677129870151557,5.451142127629246,-49.1875
1771616894.2508945,0.09446913075087625,1.3888494923981733,-8.411089072555807,0.8783749466801569,-1.1678875002067683,9.762482501937242,-0.003139431296251762,0.0030302738940208474,-0.002181661564992912,-11.677129870151557,5.451142127629246,-49.1875
1771616894.269101,0.09446913075087625,1.3888494923981733,-8.411089072555807,0.8776991008765905,-1.1671049923659904,9.761652077307872,2.7289350557728675e-05,-0.0015424262975681524,-0.002181661564992912,-10.903649121182307,6.70245744799177,-48.75
1771616894.287475,0.09446913075087625,1.3888494923981733,-8.411089072555807,0.8795724717108693,-1.1641774186996257,9.764444550700794,-0.0008121471746206692,0.002299994771073364,0.001090830782496456,-10.903649121182307,6.70245744799177,-48.75
1771616894.3060365,0.09446913075087625,1.3888494923981733,-8.411089072555807,0.8795724717108693,-1.1641774186996257,9.764444550700794,-0.0008121471746206692,0.002299994771073364,0.001090830782496456,-10.903649121182307,6.70245744799177,-48.75
1771616894.3237514,0.09446913075087625,1.3888494923981733,-8.411089072555807,0.8808191790741583,-1.1622291511278007,9.766302910549813,-0.0046818575938199145,0.0030029845434631185,0.0,-10.903649121182307,6.70245744799177,-48.75
1771616894.3403418,0.09446913075087625,1.3888494923981733,-8.411089072555807,0.8770025715640739,-1.1657462477013507,9.767539628270095,0.0,0.0,-0.002181661564992912,-11.694329080890276,6.423261815296338,-48.375
1771616894.358161,0.09446913075087625,1.3888494923981733,-8.411089072555807,0.8744626619004122,-1.1680868361825054,9.7683626500979,0.001569715648125881,-0.0015151369470104237,0.002181661564992912,-11.694329080890276,6.423261815296338,-48.375
1771616894.3749816,0.09446913075087625,1.3888494923981733,-8.411089072555807,0.875095519058755,-1.1672376482311146,9.76891036193055,-0.0007848578240629405,0.0007575684735052118,0.0,-11.694329080890276,6.423261815296338,-48.375
1771616894.7098014,0.09446913075087625,1.3888494923981733,-8.411089072555807,0.8680709879191096,-1.1682497194017865,9.779661274603132,0.0007575684735052118,0.0007848578240629405,-0.001090830782496456,-11.622779441639263,4.87748954904136,-48.75
1771616894.7283242,0.09446913075087625,1.3888494923981733,-8.411089072555807,0.8708419314238749,-1.1673460451940216,9.783119693739515,-0.001569715648125881,0.0015151369470104237,0.001090830782496456,-11.622779441639263,4.87748954904136,-48.75
1771616894.7452233,0.09446913075087625,1.3888494923981733,-8.411089072555807,0.8702791399333166,-1.1644215214365967,9.782076121334384,-0.0007575684735052118,-0.0007848578240629405,0.0,-11.945380550558713,5.623200467912702,-49.1875
1771616894.7642562,0.09446913075087625,1.3888494923981733,-8.411089072555807,0.8723114319226555,-1.1647984222119612,9.778036523848918,2.7289350557728675e-05,-0.0015424262975681524,0.001090830782496456,-11.945380550558713,5.623200467912702,-49.1875
1771616894.782076,0.09446913075087625,1.3888494923981733,-8.411089072555807,0.8713407608725117,-1.1674560689072209,9.7753482168476,2.7289350557728675e-05,-0.0015424262975681524,-0.001090830782496456,-11.945380550558713,5.623200467912702,-49.1875
1771616894.7983716,0.09446913075087625,1.3888494923981733,-8.411089072555807,0.8713407608725117,-1.1674560689072209,9.7753482168476,2.7289350557728675e-05,-0.0015424262975681524,-0.001090830782496456,-11.945380550558713,5.623200467912702,-49.1875
1771616894.8184204,0.09446913075087625,1.3888494923981733,-8.411089072555807,0.8706947901317471,-1.1692247030950575,9.770214066861262,0.002299994771073364,0.0008121471746206692,0.0,-11.937562727495658,5.181327882609478,-48.5
1771616894.835545,0.09446913075087625,1.3888494923981733,-8.411089072555807,0.8725880424865939,-1.167994885950612,9.773487570812206,-0.002354573472188822,0.0022727054205156356,-0.001090830782496456,-11.937562727495658,5.181327882609478,-48.5
1771616894.8520997,0.09446913075087625,1.3888494923981733,-8.411089072555807,0.8738479807797299,-1.167176456378941,9.768975827709484,0.002354573472188822,-0.0022727054205156356,0.001090830782496456,-11.937562727495658,5.181327882609478,-48.5
1771616894.8688612,0.09446913075087625,1.3888494923981733,-8.411089072555807,0.8738479807797299,-1.167176456378941,9.768975827709484,0.002354573472188822,-0.0022727054205156356,0.001090830782496456,-11.937562727495658,5.181327882609478,-48.5
1771616894.889422,0.09446913075087625,1.3888494923981733,-8.411089072555807,0.8746027708667263,-1.1619018385350794,9.772663536488736,0.001569715648125881,-0.0015151369470104237,-0.002181661564992912,-11.68494769321461,5.8930147129324695,-49.5625
1771616895.2154098,0.09446913075087625,1.3888494923981733,-8.411089072555807,0.8687289960111695,-1.162493027338401,9.760764802363703,0.0015424262975681524,2.72893505577287e-05,0.0,-11.901975074334697,5.6681695087493305,-48.75
1771616895.2331517,0.09446913075087625,1.3888494923981733,-8.411089072555807,0.8689566897918489,-1.1659218543718148,9.76385407913696,0.0008121471746206692,-0.002299994771073364,-0.001090830782496456,-11.901975074334697,5.6681695087493305,-48.75
1771616895.251604,0.09446913075087625,1.3888494923981733,-8.411089072555807,0.8691082174593849,-1.168203700460044,9.765909958320082,0.001569715648125881,-0.0015151369470104237,0.0,-11.901975074334697,5.6681695087493305,-48.75
1771616895.2689312,0.09446913075087625,1.3888494923981733,-8.411089072555807,0.8739390195358273,-1.169638558769217,9.760587899536135,0.0,0.0,-0.002181661564992912,-11.694329080890276,6.423261815296338,-49.5625
1771616895.2907171,0.09446913075087625,1.3888494923981733,-8.411089072555807,0.8771538643541048,-1.170593440945554,9.75704612886671,0.0,0.0,0.001090830782496456,-11.694329080890276,6.423261815296338,-49.5625
1771616895.3106277,0.09446913075087625,1.3888494923981733,-8.411089072555807,0.8771538643541048,-1.170593440945554,9.75704612886671,0.0,0.0,0.001090830782496456,-11.694329080890276,6.423261815296338,-49.5625
1771616895.3285394,0.09446913075087625,1.3888494923981733,-8.411089072555807,0.8746470303347793,-1.1760425512461985,9.75468912005038,0.0031121419456940336,-0.001487847596452695,0.0,-11.694329080890276,6.423261815296338,-49.5625
1771616895.3460093,0.09446913075087625,1.3888494923981733,-8.411089072555807,0.8705719368585766,-1.177345734613867,9.759810780427262,0.001569715648125881,-0.0015151369470104237,0.0,-11.68494769321461,5.8930147129324695,-49.1875
1771616895.3628788,0.09446913075087625,1.3888494923981733,-8.411089072555807,0.8748294236725197,-1.170992518269001,9.759874076488064,0.0015424262975681524,2.72893505577287e-05,-0.001090830782496456,-11.68494769321461,5.8930147129324695,-49.1875
1771616895.3798094,0.09446913075087625,1.3888494923981733,-8.411089072555807,0.877662733587955,-1.1667645237615696,9.763261311016784,0.002327284121631093,-0.0007302791229474832,0.0,-11.68494769321461,5.8930147129324695,-49.1875
1771616895.3982246,0.09446913075087625,1.3888494923981733,-8.411089072555807,0.877662733587955,-1.1667645237615696,9.763261311016784,0.002327284121631093,-0.0007302791229474832,0.0,-11.68494769321461,5.8930147129324695,-49.1875
1771616895.727124,0.09446913075087625,1.3888494923981733,-8.411089072555807,0.8777391866620907,-1.1586680258593784,9.752751772701927,-0.0015424262975681524,-2.72893505577287e-05,-0.001090830782496456,-11.424514835870509,6.162828957952236,-48.75
1771616895.744762,0.09446913075087625,1.3888494923981733,-8.411089072555807,0.8747855014743071,-1.1539164344028472,9.761866609115776,-0.0007575684735052118,-0.0007848578240629405,0.0,-11.424514835870509,6.162828957952236,-48.75
1771616895.760554,0.09446913075087625,1.3888494923981733,-8.411089072555807,0.8747855014743071,-1.1539164344028472,9.761866609115776,-0.0007575684735052118,-0.0007848578240629405,0.0,-11.424514835870509,6.162828957952236,-48.75
1771616895.7770889,0.09446913075087625,1.3888494923981733,-8.411089072555807,0.8704967183098029,-1.1531611268067925,9.764587319222478,2.7289350557728675e-05,-0.0015424262975681524,0.0,-11.694329080890276,6.423261815296338,-48.0
1771616895.795577,0.09446913075087625,1.3888494923981733,-8.411089072555807,0.8676425810226723,-1.1526584780389568,9.769743033113485,0.0,0.0,-0.002181661564992912,-11.694329080890276,6.423261815296338,-48.0
1771616895.8112087,0.09446913075087625,1.3888494923981733,-8.411089072555807,0.8657431845408895,-1.1523239708989168,9.769828991407532,-0.0007575684735052118,-0.0007848578240629405,-0.001090830782496456,-11.694329080890276,6.423261815296338,-48.0
1771616895.8292477,0.09446913075087625,1.3888494923981733,-8.411089072555807,0.8657431845408895,-1.1523239708989168,9.769828991407532,-0.0007575684735052118,-0.0007848578240629405,-0.001090830782496456,-11.694329080890276,6.423261815296338,-48.0
1771616895.847714,0.09446913075087625,1.3888494923981733,-8.411089072555807,0.8644791573999121,-1.1521013601339098,9.769886195692004,-0.002354573472188822,0.0022727054205156356,0.0,-11.694329080890276,6.423261815296338,-49.1875
1771616895.8631804,0.09446913075087625,1.3888494923981733,-8.411089072555807,0.8684516083367247,-1.1565994924902423,9.769924264504306,-0.0031121419456940336,0.001487847596452695,0.0,-11.694329080890276,6.423261815296338,-49.1875
1771616895.880225,0.09446913075087625,1.3888494923981733,-8.411089072555807,0.8710952300599891,-1.1595929493259507,9.769949598873637,2.7289350557728675e-05,-0.0015424262975681524,-0.001090830782496456,-11.694329080890276,6.423261815296338,-49.1875
1771616895.897632,0.09446913075087625,1.3888494923981733,-8.411089072555807,0.8728545307856318,-1.1615850614110108,9.769966458613423,0.0007848578240629405,-0.0007575684735052118,0.0,-11.68494769321461,5.8930147129324695,-49.1875
1771616895.9157386,0.09446913075087625,1.3888494923981733,-8.411089072555807,0.8716185023263578,-1.1605876510834086,9.769977678581915,0.001569715648125881,-0.0015151369470104237,0.0,-11.68494769321461,5.8930147129324695,-49.1875
1771616896.209986,0.09446913075087625,1.3888494923981733,-8.411089072555807,0.8756815942531605,-1.1546043345662012,9.77912941146,-0.001569715648125881,0.0015151369470104237,0.001090830782496456,-12.171789319354463,5.928602366093433,-48.375
1771616896.2316737,0.09446913075087625,1.3888494923981733,-8.411089072555807,0.8758230201504897,-1.1535352319085037,9.77942063305174,2.7289350557728675e-05,-0.0015424262975681524,0.002181661564992912,-12.171789319354463,5.928602366093433,-48.375
1771616896.251604,0.09446913075087625,1.3888494923981733,-8.411089072555807,0.8759171375053315,-1.152823756032465,9.779614437767886,-2.7289350557728675e-05,0.0015424262975681524,-0.001090830782496456,-12.171789319354463,5.928602366093433,-48.375
1771616896.2686024,0.09446913075087625,1.3888494923981733,-8.411089072555807,0.8783865949931315,-1.1546734154515275,9.77974341264154,0.0,0.0,0.0,-12.241401061063778,4.8665445967530845,-49.1875
1771616896.2852445,0.09446913075087625,1.3888494923981733,-8.411089072555807,0.884759953471987,-1.155820658360211,9.783174355686533,0.0007848578240629405,-0.0007575684735052118,0.0,-12.241401061063778,4.8665445967530845,-49.1875
1771616896.3029807,0.09446913075087625,1.3888494923981733,-8.411089072555807,0.884759953471987,-1.155820658360211,9.783174355686533,0.0007848578240629405,-0.0007575684735052118,0.0,-12.241401061063778,4.8665445967530845,-49.1875
1771616896.322922,0.09446913075087625,1.3888494923981733,-8.411089072555807,0.8890013523445861,-1.1565841357003972,9.785457609956831,-0.0015424262975681524,-2.72893505577287e-05,0.0,-12.241401061063778,4.8665445967530845,-49.1875
1771616896.3398354,0.09446913075087625,1.3888494923981733,-8.411089072555807,0.8824477164746793,-1.161989552993368,9.786977090168092,-0.0007848578240629405,0.0007575684735052118,-0.002181661564992912,-12.162407931678798,5.398355263729563,-48.75
1771616896.3580897,0.09446913075087625,1.3888494923981733,-8.411089072555807,0.8756795215726536,-1.1632636591525125,9.78464317556766,0.0015424262975681524,2.72893505577287e-05,0.0,-12.162407931678798,5.398355263729563,-48.75
1771616896.3759882,0.09446913075087625,1.3888494923981733,-8.411089072555807,0.8734985021379059,-1.1617047391292123,9.77639975805797,-0.0007848578240629405,0.0007575684735052118,-0.001090830782496456,-12.162407931678798,5.398355263729563,-48.75
1771616896.394254,0.09446913075087625,1.3888494923981733,-8.411089072555807,0.8743701967345247,-1.1582604718284715,9.770913855790278,-0.001569715648125881,0.0015151369470104237,-0.001090830782496456,-11.720535346375573,5.406173086792617,-49.5625
1771616896.4118354,0.09446913075087625,1.3888494923981733,-8.411089072555807,0.8743701967345247,-1.1582604718284715,9.770913855790278,-0.001569715648125881,0.0015151369470104237,-0.001090830782496456,-11.720535346375573,5.406173086792617,-49.5625
1771616896.749338,0.09446913075087625,1.3888494923981733,-8.411089072555807,0.8779218303216438,-1.163286611820021,9.763819076507076,-0.001569715648125881,0.0015151369470104237,-0.001090830782496456,-11.964143325910042,6.683694672640439,-50.0
1771616896.7673783,0.09446913075087625,1.3888494923981733,-8.411089072555807,0.8773138722289888,-1.159313190433529,9.765886664460899,-0.0007575684735052118,-0.0007848578240629405,0.001090830782496456,-11.964143325910042,6.683694672640439,-50.0
1771616896.7842245,0.09446913075087625,1.3888494923981733,-8.411089072555807,0.8722630055759444,-1.1614825697658684,9.770607732855016,0.001569715648125881,-0.0015151369470104237,0.002181661564992912,-11.964143325910042,6.683694672640439,-50.0
1771616896.8004215,0.09446913075087625,1.3888494923981733,-8.411089072555807,0.8722630055759444,-1.1614825697658684,9.770607732855016,0.001569715648125881,-0.0015151369470104237,0.002181661564992912,-11.964143325910042,6.683694672640439,-50.0
1771616896.8211436,0.09446913075087625,1.3888494923981733,-8.411089072555807,0.8689017102402207,-1.1629262674779852,9.770404439426192,-0.0015424262975681524,-2.72893505577287e-05,-0.001090830782496456,-12.485009040598246,6.144066182600906,-50.0
1771616896.8390584,0.09446913075087625,1.3888494923981733,-8.411089072555807,0.8666648057424258,-1.163887032178239,9.770269149920246,2.7289350557728675e-05,-0.0015424262975681524,0.0,-12.485009040598246,6.144066182600906,-50.0
1771616896.857845,0.09446913075087625,1.3888494923981733,-8.411089072555807,0.8722292715602357,-1.162035902141648,9.766834004558003,-0.0008121471746206692,0.002299994771073364,0.001090830782496456,-12.485009040598246,6.144066182600906,-50.0
1771616896.8749814,0.09446913075087625,1.3888494923981733,-8.411089072555807,0.875932361402832,-1.1608039957807739,9.767893065399837,-0.00159700499868361,0.0030575632445785763,-0.001090830782496456,-11.68494769321461,5.8930147129324695,-48.5
1771616896.8940573,0.09446913075087625,1.3888494923981733,-8.411089072555807,0.875932361402832,-1.1608039957807739,9.767893065399837,-0.00159700499868361,0.0030575632445785763,-0.001090830782496456,-11.68494769321461,5.8930147129324695,-48.5
1771616896.9139848,0.09446913075087625,1.3888494923981733,-8.411089072555807,0.878396726326856,-1.1599841758589078,9.768597858559593,-0.001569715648125881,0.0015151369470104237,-0.001090830782496456,-11.68494769321461,5.8930147129324695,-48.5
1771616896.9331663,0.09446913075087625,1.3888494923981733,-8.411089072555807,0.8776299102155214,-1.1571154561920347,9.772412002241675,0.002327284121631093,-0.0007302791229474832,0.0,-11.68494769321461,5.8930147129324695,-48.5
1771616897.238245,0.09446913075087625,1.3888494923981733,-8.411089072555807,0.8824371494190476,-1.1586945110418625,9.776561375602542,0.0007302791229474832,0.002327284121631093,0.0,-12.162407931678798,5.398355263729563,-48.5
1771616897.2574975,0.09446913075087625,1.3888494923981733,-8.411089072555807,0.8804024514215446,-1.1609871607691633,9.774366522168124,-5.457870111545735e-05,0.0030848525951363047,0.0,-12.162407931678798,5.398355263729563,-48.5
1771616897.2788053,0.09446913075087625,1.3888494923981733,-8.411089072555807,0.8790483826332721,-1.1625128935521065,9.776250983432957,-0.001569715648125881,0.0015151369470104237,0.001090830782496456,-11.424514835870509,6.162828957952236,-48.5
1771616897.298127,0.09446913075087625,1.3888494923981733,-8.411089072555807,0.8781472649806162,-1.1635282516756034,9.780850183061212,0.0,0.0,0.0,-11.424514835870509,6.162828957952236,-48.5
1771616897.3145118,0.09446913075087625,1.3888494923981733,-8.411089072555807,0.8781472649806162,-1.1635282516756034,9.780850183061212,0.0,0.0,0.0,-11.424514835870509,6.162828957952236,-48.5
1771616897.3331327,0.09446913075087625,1.3888494923981733,-8.411089072555807,0.8751407578094051,-1.1618808224976374,9.783910899037389,0.0007575684735052118,0.0007848578240629405,0.0,-11.424514835870509,6.162828957952236,-48.5
1771616897.3501453,0.09446913075087625,1.3888494923981733,-8.411089072555807,0.8731399608718499,-1.1607844767826907,9.779257547914458,2.7289350557728675e-05,-0.0015424262975681524,0.001090830782496456,-12.799792326454641,6.447904516169025,-48.75
1771616897.3681874,0.09446913075087625,1.3888494923981733,-8.411089072555807,0.8718084528602729,-1.1600548709563776,9.776160794723486,0.0008121471746206692,-0.002299994771073364,0.001090830782496456,-12.799792326454641,6.447904516169025,-48.75
1771616897.385407,0.09446913075087625,1.3888494923981733,-8.411089072555807,0.8757359960315124,-1.164215603762917,9.774099940067893,-0.0015424262975681524,-2.72893505577287e-05,-0.001090830782496456,-12.799792326454641,6.447904516169025,-48.75
1771616897.4021804,0.09446913075087625,1.3888494923981733,-8.411089072555807,0.8757359960315124,-1.164215603762917,9.774099940067893,-0.0015424262975681524,-2.72893505577287e-05,-0.001090830782496456,-12.799792326454641,6.447904516169025,-48.75
1771616897.4213789,0.09446913075087625,1.3888494923981733,-8.411089072555807,0.8783497321384405,-1.1669845249672381,9.772728464315852,-0.0015424262975681524,-2.72893505577287e-05,-0.001090830782496456,-11.677129870151557,5.451142127629246,-49.5625
1771616897.43963,0.09446913075087625,1.3888494923981733,-8.411089072555807,0.8752754974412307,-1.1641809337641178,9.771815762523255,-0.0007848578240629405,0.0007575684735052118,-0.001090830782496456,-11.677129870151557,5.451142127629246,-49.5625
1771616897.7568014,0.09446913075087625,1.3888494923981733,-8.411089072555807,0.8690205556217736,-1.1608556388729607,9.773383174325945,0.0007575684735052118,0.0007848578240629405,-0.001090830782496456,-11.954761938234377,6.153447570276572,-48.0
1771616897.7762456,0.09446913075087625,1.3888494923981733,-8.411089072555807,0.8667438960162595,-1.1625090519720322,9.772251464721382,0.001569715648125881,-0.0015151369470104237,0.002181661564992912,-11.954761938234377,6.153447570276572,-48.0
1771616897.7928371,0.09446913075087625,1.3888494923981733,-8.411089072555807,0.869958766587116,-1.1635256951469772,9.77149832462157,-0.0007575684735052118,-0.0007848578240629405,-0.002181661564992912,-11.954761938234377,6.153447570276572,-48.0
1771616897.811462,0.09446913075087625,1.3888494923981733,-8.411089072555807,0.8720982270395636,-1.1642022598232546,9.770997118298272,2.7289350557728675e-05,-0.0015424262975681524,0.0,-11.954761938234377,6.153447570276572,-48.0
1771616897.827948,0.09446913075087625,1.3888494923981733,-8.411089072555807,0.8720982270395636,-1.1642022598232546,9.770997118298272,2.7289350557728675e-05,-0.0015424262975681524,0.0,-11.954761938234377,6.153447570276572,-48.0
1771616897.846182,0.09446913075087625,1.3888494923981733,-8.411089072555807,0.8735220140713282,-1.1646525060575945,9.770663571088958,-0.001569715648125881,0.0015151369470104237,0.001090830782496456,-11.954761938234377,6.153447570276572,-48.0
1771616897.8627129,0.09446913075087625,1.3888494923981733,-8.411089072555807,0.8744695284362244,-1.1649521398969678,9.770441599147127,-0.002327284121631093,0.0007302791229474832,-0.001090830782496456,-11.954761938234377,6.153447570276572,-48.0
1771616897.878964,0.09446913075087625,1.3888494923981733,-8.411089072555807,0.8744695284362244,-1.1649521398969678,9.770441599147127,-0.002327284121631093,0.0007302791229474832,-0.001090830782496456,-11.954761938234377,6.153447570276572,-48.0
1771616897.8978133,0.09446913075087625,1.3888494923981733,-8.411089072555807,0.8703701265552616,-1.1652352276425941,9.770293879299427,0.001569715648125881,-0.0015151369470104237,0.0,-11.954761938234377,6.153447570276572,-49.1875
1771616897.9163625,0.09446913075087625,1.3888494923981733,-8.411089072555807,0.8700488438363129,-1.1677467580418708,9.770195573390922,-0.0015424262975681524,-2.72893505577287e-05,0.0,-11.954761938234377,6.153447570276572,-49.1875
1771616897.9350338,0.09446913075087625,1.3888494923981733,-8.411089072555807,0.8674282103363032,-1.167095014800097,9.766785040199641,-0.0007575684735052118,-0.0007848578240629405,0.0,-11.954761938234377,6.153447570276572,-49.1875
1771616897.9513032,0.09446913075087625,1.3888494923981733,-8.411089072555807,0.8680910314559536,-1.168984425620005,9.767860480166314,0.0007575684735052118,0.0007848578240629405,-0.001090830782496456,-11.926617775207383,4.562706263184966,-48.75
1771616898.2493284,0.09446913075087625,1.3888494923981733,-8.411089072555807,0.8750317364855813,-1.1638961758834447,9.791622951654082,0.0007575684735052118,0.0007848578240629405,-0.001090830782496456,-12.224576183254145,6.413880427620673,-48.75
1771616898.2684944,0.09446913075087625,1.3888494923981733,-8.411089072555807,0.873067408398693,-1.1621256719479731,9.781044721074275,-0.0015424262975681524,-2.72893505577287e-05,-0.001090830782496456,-12.224576183254145,6.413880427620673,-48.75
1771616898.2860353,0.09446913075087625,1.3888494923981733,-8.411089072555807,0.8717601699998514,-1.1609474213567414,9.774005026789993,-0.0007848578240629405,0.0007575684735052118,0.001090830782496456,-12.171789319354463,5.928602366093433,-49.5625
1771616898.3032162,0.09446913075087625,1.3888494923981733,-8.411089072555807,0.8708902174482319,-1.1601633087501984,9.77266530058966,-0.0007848578240629405,0.0007575684735052118,-0.001090830782496456,-12.171789319354463,5.928602366093433,-49.5625
1771616898.3219767,0.09446913075087625,1.3888494923981733,-8.411089072555807,0.8728017819553012,-1.1666945913428877,9.77177372776906,-0.0007848578240629405,0.0007575684735052118,0.0,-12.171789319354463,5.928602366093433,-49.5625
