timestamp,yaw,pitch,roll,ax,ay,az,gx,gy,gz,mx,my,mz
1771538425.5266979,-0.10415221912654109,1.4370687906258026,-8.290285798272558,-0.22831843204269137,-1.4030162405142201,9.592652129867286,0.001090830782496456,0.0,0.0,17.75,44.875,-60.1875
1771538426.1107926,23.58622701324812,1.432990742447411,-8.290573769361453,-0.22680243410957154,-1.4164460698239585,9.76151432124348,-0.001090830782496456,-0.001090830782496456,0.0,17.375,44.5625,-57.0
1771538426.4341152,23.636751841232496,1.436598640407262,-8.290190509090477,-0.23461163948469937,-1.4104870903379485,9.764032251296435,0.0,-0.001090830782496456,0.001090830782496456,17.75,44.5625,-58.1875
1771538426.5080688,23.629345553050364,1.4360857881901918,-8.290172761628739,-0.23306899456167895,-1.4103241531787492,9.766028529901899,-0.002181661564992912,-0.001090830782496456,-0.002181661564992912,17.375,45.0,-56.5625
1771538426.5317628,23.629345553050364,1.4360857881901918,-8.290172761628739,-0.23306899456167895,-1.4103241531787492,9.766028529901899,-0.002181661564992912,-0.001090830782496456,-0.002181661564992912,17.375,45.0,-56.5625
1771538426.5732958,23.636751841232496,1.436598640407262,-8.290190509090477,-0.2320423815978818,-1.4068706086121099,9.77070214272126,0.0,-0.001090830782496456,0.001090830782496456,17.375,45.0,-56.5625
1771538426.6190155,23.64284331221368,1.4371294276274282,-8.289700763070364,-0.236475766711302,-1.4030428234128403,9.773656073433132,-0.002181661564992912,-0.001090830782496456,0.0,17.375,44.1875,-57.375
1771538426.6804461,23.64284331221368,1.4371294276274282,-8.289700763070364,-0.23765466211463682,-1.405370076698,9.775778187736053,0.0,0.0,-0.001090830782496456,16.5625,43.5,-57.375
1771538426.701539,23.64284331221368,1.4371294276274282,-8.289700763070364,-0.23765466211463682,-1.405370076698,9.775778187736053,0.0,0.0,-0.001090830782496456,16.5625,43.5,-57.375
1771538426.7294412,23.64284331221368,1.4371294276274282,-8.289700763070364,-0.23843920383643163,-1.4035737260548318,9.777190431099076,-0.001090830782496456,0.001090830782496456,0.0,16.5625,43.5,-57.375
1771538426.8725522,0.020450491186948357,1.4381267054588014,-8.28957295355796,-0.778308005365326,-1.1953878643691185,9.773184464918888,-0.002311378763708904,-0.0025605948861727045,0.001090830782496456,33.290189902616206,33.66449780551836,-57.75
1771538426.9205766,0.020450491186948357,1.4381267054588014,-8.28957295355796,-0.7802267135209502,-1.202890245578814,9.772119225830716,0.0024359868249408043,0.0001246080612319001,-0.002181661564992912,32.237730953691965,31.25972023559026,-59.0
1771538426.989264,0.020450491186948357,1.4381267054588014,-8.28957295355796,-0.7956796135896953,-1.2235874963193307,9.7647200977024,0.004683835631850007,-0.00562207386964051,-0.002181661564992912,32.237730953691965,31.25972023559026,-59.0
1771538427.013473,0.020450491186948357,1.4381267054588014,-8.28957295355796,-0.80289886992613,-1.23870246367476,9.763141172294,0.00024921612246380014,-0.0048719736498816085,0.002181661564992912,32.76410090894673,33.5536245863,-60.1875
1771538427.0415165,0.020450491186948357,1.4381267054588014,-8.28957295355796,-0.80289886992613,-1.23870246367476,9.763141172294,0.00024921612246380014,-0.0048719736498816085,0.002181661564992912,32.76410090894673,33.5536245863,-60.1875
1771538427.0970414,0.09995909050136628,1.4399681812332488,-8.304005152145356,-0.8050208479915401,-1.2426323535263282,9.755400191657825,-0.0003738241836957,0.007307960474822413,-0.002181661564992912,32.76410090894673,33.5536245863,-60.1875
1771538427.1356044,0.6276024675206401,1.4779740019745193,-8.462116558291353,-0.926332955533664,-1.3519370086522207,9.746820365761494,-0.04416050892819798,-0.00567824826933771,-0.0916297857297023,33.03232444179208,32.13998791571313,-58.1875
1771538427.1875713,0.6487973701536435,1.4901609405588456,-8.34506507784079,-1.0061250361118528,-1.4229375841567382,9.607389297225701,-0.010562481181056821,-0.05134140948942099,-0.003272492347489368,33.01454589218366,33.03467510863243,-57.75
1771538427.2127483,0.6487973701536435,1.4901609405588456,-8.34506507784079,-1.0061250361118528,-1.4229375841567382,9.607389297225701,-0.010562481181056821,-0.05134140948942099,-0.003272492347489368,33.01454589218366,33.03467510863243,-57.75
1771538427.2431035,0.6135948449633727,1.4783072843882707,-8.368952356281497,-0.865167131487136,-1.2520479739388983,8.996107164027718,-0.01335022551838582,0.12729680705544882,0.013089969389957472,33.01454589218366,33.03467510863243,-57.75
1771538427.276685,0.7129288135341865,1.4963220330958735,-8.351079460477223,-0.7682967445232435,-1.1396640254920078,7.431897082120802,0.07166009723207853,0.13653006284844693,-0.0545415391248228,33.03232444179208,32.13998791571313,-58.5625
1771538427.3466895,0.7129288135341865,1.4963220330958735,-8.351079460477223,-0.7682967445232435,-1.1396640254920078,7.431897082120802,0.07166009723207853,0.13653006284844693,-0.0545415391248228,33.03232444179208,32.13998791571313,-58.5625
1771538427.400289,0.9485802026078137,1.4083762888367195,-8.39222837274445,-0.5028637122399054,-0.747516952118215,7.548341396715776,-0.040107069159609966,-0.05627200939136729,0.10253809355466686,33.03232444179208,32.13998791571313,-58.5625
1771538427.474802,1.4318642319170682,1.4856415645512029,-8.348391921915413,-0.5984801671207722,-1.108636091297261,9.220897250375469,0.09799898334699196,-0.015502888492473131,0.020725784867432664,33.01454589218366,33.03467510863243,-56.25
1771538427.5659738,2.3134899889819525,1.5294325980112256,-8.341491540710274,-0.8575735420285876,-1.4418761022663147,10.855501773381187,-0.007244430518022712,0.007933452633349413,0.038179077387375956,32.237730953691965,31.25972023559026,-56.5625
1771538427.6351018,2.3615625617219047,1.5444446148519482,-8.359367271446333,-0.9092143428201614,-1.3992859539014229,10.60277799067739,0.0017494165619816031,0.003997265368890807,0.038179077387375956,32.237730953691965,31.25972023559026,-56.5625
1771538427.6663969,2.3402105868306915,1.5566141288769648,-8.356862925024751,-0.8976135782947509,-1.391060358793544,10.434593136397645,-0.0013120624214862024,-0.002997949026668105,-0.01090830782496456,32.237730953691965,31.25972023559026,-55.5
1771538427.7077315,2.3308984253782987,1.569527925356319,-8.353472643714575,-0.889893399092121,-1.385586317135168,10.24907553706137,0.01174257998420862,-0.0003762760360632011,0.008726646259971648,32.237730953691965,31.25972023559026,-55.5
1771538427.7548525,2.3308984253782987,1.569527925356319,-8.353472643714575,-0.889893399092121,-1.385586317135168,10.24907553706137,0.01174257998420862,-0.0003762760360632011,0.008726646259971648,32.237730953691965,31.25972023559026,-55.5
1771538427.7823992,2.2302153816047205,1.5832513886428705,-8.415086966029708,-0.8807321714996579,-1.372749975443239,10.088819418289939,-0.015424647421468426,0.024611536224239342,-0.05890486225480862,32.75668043135954,31.510165218827197,-54.5625
1771538427.827339,2.0077104304796825,1.5693934873570314,-8.46054842702334,-0.9114091893438195,-1.3481133951459319,9.921958750693946,-0.008307276817045114,6.35299567997006e-05,-0.10471975511965978,32.75668043135954,31.510165218827197,-54.5625
1771538427.874057,1.720834877919019,1.554338535549247,-8.491698579169313,-0.9318244020343661,-1.3317180261667083,9.797534393535326,-0.004994129858746007,0.021237311161508034,-0.1341721862470641,32.30562659610629,30.479546260286583,-55.0
1771538427.950771,1.372544603684184,1.5179135823217405,-8.513502930947773,-0.8747252111243512,-1.2677594588434768,9.728111820586681,-0.013303858528158623,0.0022503006592767046,-0.1505346479845109,32.30562659610629,30.479546260286583,-55.0
1771538427.976845,0.9440247345508707,1.4875283150626508,-8.526031651679537,-0.7798349520783379,-1.1953227444598777,9.705327655741547,-0.003371773210363805,0.008620022896308616,-0.09599310885968812,32.649166248953165,30.329194981868834,-55.75
1771538428.001683,0.9440247345508707,1.4875283150626508,-8.526031651679537,-0.7798349520783379,-1.1953227444598777,9.705327655741547,-0.003371773210363805,0.008620022896308616,-0.09599310885968812,32.649166248953165,30.329194981868834,-55.75
1771538428.026943,0.6215392081164373,1.4732725919961855,-8.542224554740748,-0.7166865446768633,-1.1471169202087113,9.767102617821253,0.008497866687444216,0.02485830049433564,-0.10144726277217041,32.649166248953165,30.329194981868834,-55.75
1771538428.0653002,0.3288051312662264,1.447443241357602,-8.560930897675583,-0.6892201258466657,-1.1232708522471782,9.808213165013756,-0.01224101222913622,0.010120223335826418,-0.09599310885968812,31.410939403186994,30.461767710678167,-55.375
1771538428.0818934,0.3288051312662264,1.447443241357602,-8.560930897675583,-0.6892201258466657,-1.1232708522471782,9.808213165013756,-0.01224101222913622,0.010120223335826418,-0.09599310885968812,31.410939403186994,30.461767710678167,-55.375
1771538428.1507413,0.1803832741988729,1.4280651190429652,-8.557638993828489,-0.69565215846811,-1.1221470017153103,9.80212065786227,-0.005306875938009508,0.017802007994344532,-0.09381144729469522,31.410939403186994,30.461767710678167,-55.375
1771538428.182424,-0.2128129028009681,1.4054725232328713,-8.56081769296152,-0.7267561681482703,-1.1826886125227989,9.798066162410722,-0.004622757527417808,-0.005121189772345409,-0.09708393964218458,32.37352223852063,29.699372284982903,-55.0
1771538428.2105184,-0.2128129028009681,1.4054725232328713,-8.56081769296152,-0.7267561681482703,-1.1826886125227989,9.798066162410722,-0.004622757527417808,-0.005121189772345409,-0.09708393964218458,32.37352223852063,29.699372284982903,-55.0
1771538428.260823,-0.832940588671681,1.3784118735048543,-8.593295912039476,-0.7474555391358625,-1.2229783782210772,9.78533260585744,-0.01798769416000863,0.007872374528917214,-0.10690141668465268,30.397958513462147,28.926618787266413,-55.0625
1771538428.2807562,-1.046922626799862,1.3664599877394832,-8.616385697081787,-0.7863234864909199,-1.2570660782763319,9.686540550116753,-0.015424647421468426,0.024611536224239342,-0.13308135546456762,30.397958513462147,28.926618787266413,-55.0625
1771538428.3052816,-1.046922626799862,1.3664599877394832,-8.616385697081787,-0.7863234864909199,-1.2570660782763319,9.686540550116753,-0.015424647421468426,0.024611536224239342,-0.13308135546456762,30.397958513462147,28.926618787266413,-55.0625
1771538428.3322427,-0.6578119805518164,1.332512550481237,-8.61742656319346,-0.774456900268907,-1.2853105938628178,9.620795540600898,0.007994530737781613,-0.0034988331239632063,-0.13853550937704992,32.05840016888869,28.19992094158063,-56.25
1771538428.3517957,-0.8871491883184048,1.3248358794056283,-8.632103524080717,-0.8370427685961569,-1.2732599050794455,9.801165455578374,0.010682185537553719,0.010804341746418119,-0.07635815477475191,32.05840016888869,28.19992094158063,-56.25
1771538428.3877711,-0.8871491883184048,1.3248358794056283,-8.632103524080717,-0.8370427685961569,-1.2732599050794455,9.801165455578374,0.010682185537553719,0.010804341746418119,-0.07635815477475191,32.05840016888869,28.19992094158063,-56.25
1771538428.4365892,-0.6628827599904296,1.3033675789594033,-8.651876063593955,-0.7695106676178944,-1.2326924664161218,9.921199619131913,-0.00581021188767211,-0.010555125623954317,-0.12980886311707826,31.102816368764305,27.731229037511614,-55.5
1771538428.4984906,-146.56358189777632,-3.851221481196695,-1.8458069124573635,-0.810374137894957,-1.168142299804121,9.807064535082805,0.02280104155782554,0.022170645694563534,-0.09708393964218458,31.102816368764305,27.731229037511614,-55.5
1771538428.5313716,0.4714311151368086,1.2764170572945948,-8.648255479275544,-0.730311659520596,-1.1721261216833694,9.510331538937473,-0.0004349022881279003,0.018051224116808328,-0.09490227807719166,31.607346333635444,27.169301983040015,-55.0625
1771538428.5898418,0.6386147945310526,1.2479174002519813,-8.655219835386442,-0.8321728935425858,-1.1287876137058241,9.533636417410591,-0.014804058967676425,-0.00661893835949571,-0.12762720155208535,31.607346333635444,27.169301983040015,-55.0625
1771538428.6216452,0.6386147945310526,1.2479174002519813,-8.655219835386442,-0.8321728935425858,-1.1287876137058241,9.533636417410591,-0.014804058967676425,-0.00661893835949571,-0.12762720155208535,31.607346333635444,27.169301983040015,-55.0625
1771538428.6646004,0.7322432340680968,1.24184961714655,-8.692803449185488,-0.7517116792882593,-1.1283134007849387,9.642808681506844,-5.862625206469848e-05,0.02979380410101695,-0.1308996938995747,31.321063289596385,27.294594715054806,-56.5625
1771538428.7471282,0.7322432340680968,1.24184961714655,-8.692803449185488,-0.7517116792882593,-1.1283134007849387,9.642808681506844,-5.862625206469848e-05,0.02979380410101695,-0.1308996938995747,31.321063289596385,27.294594715054806,-56.5625
1771538428.7770503,0.770406418782092,1.204168838155987,-8.736750488039148,-0.7115774219232116,-1.1586425777745015,9.715461603728803,-0.007618254701718412,0.015241413108171826,-0.1461713248545251,31.321063289596385,27.294594715054806,-56.5625
1771538428.867592,1.2037270683331243,1.0949907505133287,-8.771031912860808,-0.6982803038863534,-1.2094710666530566,9.58986550310059,0.015180335003739626,0.01836151834370433,-0.1559888018969932,32.312204188937606,25.973912233285215,-55.5
1771538428.9149911,1.585128755071631,1.0653872235063235,-8.665140900390082,-0.7599141692709112,-1.2124497598160444,9.462796248937735,0.07870167861786463,0.008422077468807009,-0.16253378659197193,32.312204188937606,25.973912233285215,-55.5
1771538428.939364,1.585128755071631,1.0653872235063235,-8.665140900390082,-0.7599141692709112,-1.2124497598160444,9.462796248937735,0.07870167861786463,0.008422077468807009,-0.16253378659197193,32.312204188937606,25.973912233285215,-55.5
1771538428.9666822,1.1424150720692976,1.0160451705229243,-8.564869883250097,-0.4857539432910068,-0.4942801776508201,9.421719531944083,0.035848328406417856,-0.032359302691924656,-0.12762720155208535,37.9237732944811,26.79272138303241,-52.5625
1771538428.9867094,1.1424150720692976,1.0160451705229243,-8.564869883250097,-0.4857539432910068,-0.4942801776508201,9.421719531944083,0.035848328406417856,-0.032359302691924656,-0.12762720155208535,37.9237732944811,26.79272138303241,-52.5625
1771538429.0016928,0.930067178519869,0.9706084149057096,-8.530074950477823,-0.18378880994645655,-0.06865229265089941,9.56498413271509,-0.0028708891130687034,0.01792661605557643,0.00545415391248228,37.9237732944811,26.79272138303241,-52.5625
1771538429.017136,0.976074675405897,0.9428072303603954,-8.551099500114843,0.003926094082966554,0.03416882480790327,9.670360459279703,-0.03473421141243326,-0.04671620010963568,0.06872233929727672,31.424516031227547,24.725046353912525,-58.5625
1771538429.037599,0.976074675405897,0.9428072303603954,-8.551099500114843,0.003926094082966554,0.03416882480790327,9.670360459279703,-0.03473421141243326,-0.04671620010963568,0.06872233929727672,31.424516031227547,24.725046353912525,-58.5625
1771538429.0644293,1.1626817040377282,0.9475905855945465,-8.573141107109612,-0.14492434804429305,-0.37277325704645403,9.740487227477756,-0.004055891620955503,0.031543220662998556,0.10035643198967395,31.424516031227547,24.725046353912525,-58.5625
1771538429.1392102,1.4189405627739544,0.9644566558858934,-8.528147112955049,-0.22043342351587164,-0.7232725624796018,9.767085138102313,0.002245396954541703,-0.02479722238990344,0.07853981633974483,31.181351044785156,26.195939633307216,-56.5625
1771538429.1795774,1.6182715168141273,1.0123283791660322,-8.641530226174638,-0.40148976211516474,-0.8299008024246652,9.77475041538287,-0.014300723018013823,0.021738195258803137,0.05235987755982989,31.181351044785156,26.195939633307216,-56.5625
1771538429.256933,2.5563657537335303,1.0747442713827806,-8.627785335873995,-0.7524047353356934,-0.8883353282059595,9.783246334389169,0.040913343779066066,0.011862284340705518,-0.004363323129985824,28.479089474040894,23.762744480164184,-57.5
1771538429.3207242,2.5563657537335303,1.0747442713827806,-8.627785335873995,-0.7524047353356934,-0.8883353282059595,9.783246334389169,0.040913343779066066,0.011862284340705518,-0.004363323129985824,28.479089474040894,23.762744480164184,-57.5
1771538429.3635457,2.5736149337547047,1.0430430485237872,-8.67135167427532,-0.9008973172178023,-0.9966170581294828,9.748709282198867,-0.036102448233616656,-0.0008698045762558004,0.037088246604879506,29.39155521656861,22.885835836853296,-59.0625
1771538429.4033058,2.788941396009146,1.0505157372308107,-8.692927034165953,-1.0855228007846178,-1.031124350457867,9.662168137331305,-0.02261045168742644,0.002751184756571805,0.038179077387375956,29.39155521656861,22.885835836853296,-59.0625
1771538429.454018,2.788941396009146,1.0505157372308107,-8.692927034165953,-1.0855228007846178,-1.031124350457867,9.662168137331305,-0.02261045168742644,0.002751184756571805,0.038179077387375956,29.39155521656861,22.885835836853296,-59.0625
1771538429.4911807,3.1896078624056163,1.0861363483222515,-8.68066909904036,-1.012262531193464,-1.1399239722582182,9.604575972149872,-0.010806793598785619,-0.008368354921477313,0.13744467859455345,29.69225777340411,23.57291514254704,-58.5625
1771538429.5257218,3.1896078624056163,1.0861363483222515,-8.68066909904036,-1.012262531193464,-1.1399239722582182,9.604575972149872,-0.010806793598785619,-0.008368354921477313,0.13744467859455345,29.69225777340411,23.57291514254704,-58.5625
1771538429.57871,3.2970417720527316,1.1063244283444302,-8.669829461622474,-1.0211793023667521,-1.3441013748767008,9.649876822251253,0.009932085317794817,0.00636972223703191,0.022907446432425576,29.69225777340411,23.57291514254704,-58.5625
1771538429.6045136,3.246933717061712,1.092122655608027,-8.686954308031194,-0.9004806627056976,-1.2907533991805138,9.680024031950069,-0.009682869195331017,-0.01124169588691352,-0.025089107997418487,31.599925856048255,25.125842615567205,-58.5625
1771538429.6425292,3.211516969474218,1.0858800005201574,-8.702578206108962,-0.8711218375635071,-1.3717010067768431,9.71681222177483,-0.00649433029826381,0.012368072142735621,-0.026179938779914945,31.599925856048255,25.125842615567205,-58.5625
1771538429.7005107,3.211516969474218,1.0858800005201574,-8.702578206108962,-0.8711218375635071,-1.3717010067768431,9.71681222177483,-0.00649433029826381,0.012368072142735621,-0.026179938779914945,31.599925856048255,25.125842615567205,-58.5625
1771538429.7231393,2.724153459566267,1.0612237615978999,-8.790751857823512,-0.9242511440793166,-1.24030078445881,9.85229811984984,-0.010491595667154617,0.014117488704717225,-0.1341721862470641,32.21197000332577,25.744885798053968,-59.75
1771538429.7531188,2.724153459566267,1.0612237615978999,-8.790751857823512,-0.9242511440793166,-1.24030078445881,9.85229811984984,-0.010491595667154617,0.014117488704717225,-0.1341721862470641,32.21197000332577,25.744885798053968,-59.75
1771538429.7935188,2.7678270054087744,1.0456694303751544,-8.801702242235278,-0.8871206090378161,-1.2467604941928112,9.868254931624984,0.006873058186694513,0.01842504830050403,-0.1341721862470641,31.181351044785156,26.195939633307216,-58.5625
1771538429.8373456,2.9665570511282002,1.0047748283789941,-8.80626025207665,-0.8593461767038405,-1.252400537052158,9.755104878441259,-0.006496782150631312,-0.0066824683162954104,-0.16471544815696484,31.181351044785156,26.195939633307216,-58.5625
1771538429.8624406,2.736683504574042,0.9834183228243315,-8.82318347710914,-0.8690273442584743,-1.3205079193929707,9.80357391518722,0.00018813801803160057,0.005871289992104309,-0.14944381720201447,32.83115366660518,26.22435721652215,-59.0
1771538429.9264126,3.88277685611319,0.9032613730026162,-8.832474279965831,-0.8367707047998121,-1.3024376832442008,9.829139294292402,0.0030614789834678057,0.006995214395558912,-0.15817046346198613,32.83115366660518,26.22435721652215,-59.0
1771538429.9465497,3.5234921175896443,0.8839864700013276,-8.840488287910004,-0.8388610213491761,-1.2691481111081309,9.903019667527333,0.010120223335826418,0.012241012229136221,-0.15707963267948966,33.428497339500964,23.84799722980899,-59.5
1771538429.9952266,3.1600007692122962,0.8321761591346802,-8.834650481884482,-0.7915950879105353,-1.2025631295449113,9.922080225251461,0.0013120624214862024,0.002997949026668105,-0.16035212502697901,33.428497339500964,23.84799722980899,-59.5
1771538430.0392148,2.8068281180904378,0.8237547542164121,-8.825386021931736,-0.7846559455150777,-1.1475221425891282,9.934764813496487,0.013680134564221824,0.009492279324931916,-0.15271630954950383,32.859571249820114,24.57455459470213,-59.0
1771538430.0906885,2.5045437903559633,0.8177442406645169,-8.809111574538901,-0.7741038909080322,-1.1390502038472157,9.91979048332618,0.01842750015287153,0.012177482272336521,-0.17780541754692233,32.859571249820114,24.57455459470213,-59.0
1771538430.1863718,1.66339628211111,0.8023720847604784,-8.810840290386967,-0.8195673475462052,-1.1615619276981732,9.859648558262279,0.02180172521560284,0.022607999835058935,-0.1712604328519436,34.33046452921481,24.81771958114452,-58.5625
1771538430.199301,1.66339628211111,0.8023720847604784,-8.810840290386967,-0.8195673475462052,-1.1615619276981732,9.859648558262279,0.02180172521560284,0.022607999835058935,-0.1712604328519436,34.33046452921481,24.81771958114452,-58.5625
1771538430.2535675,0.7338138964243097,0.7414721608548694,-8.800285451064466,-0.916216540530076,-1.2088377672491646,9.813060071175784,0.007058744352358612,0.005245797833577309,-0.17016960206944712,34.65972515005789,24.946511830763935,-59.0625
1771538430.2962844,0.49649792938927645,0.7506530750480849,-8.79601839672753,-0.9296589277829681,-1.2267737474556717,9.81203644318425,0.01811475407360803,0.008742179105173014,-0.15926129424448257,34.65972515005789,24.946511830763935,-59.0625
1771538430.3251817,0.49649792938927645,0.7506530750480849,-8.79601839672753,-0.9296589277829681,-1.2267737474556717,9.81203644318425,0.01811475407360803,0.008742179105173014,-0.15926129424448257,34.65972515005789,24.946511830763935,-59.0625
1771538430.353882,1.4188090713923012,0.7089588257801314,-8.800332604145824,-0.9271185402791279,-1.287554258113899,9.808010118483239,-0.0033082432535641044,0.01692729971335373,-0.17889624832941878,34.83513497487859,25.34730809241862,-59.5
1771538430.3954175,1.0483091978831356,0.6789672714935252,-8.79601064563349,-0.9307926535375302,-1.3402609131506003,9.785259974127793,0.014244548618316626,0.027106149301244845,-0.1505346479845109,34.83513497487859,25.34730809241862,-59.5
1771538430.4184837,1.6098352854129663,0.6589927902312563,-8.799349549474105,-0.9332377348684626,-1.3753366033056103,9.726633554999855,0.010183753292626118,0.020548289046181334,-0.18653206380689397,33.686362800325085,25.372507119614223,-58.5625
1771538430.452079,1.6098352854129663,0.6589927902312563,-8.799349549474105,-0.9332377348684626,-1.3753366033056103,9.726633554999855,0.010183753292626118,0.020548289046181334,-0.18653206380689397,33.686362800325085,25.372507119614223,-58.5625
1771538430.4883265,2.2225359722701925,0.6361731316449091,-8.804364140673822,-0.9042201487897432,-1.4120908651931876,9.687618327970226,0.014369156679548526,0.02467016247630404,-0.1559888018969932,33.686362800325085,25.372507119614223,-58.5625
1771538430.5182571,2.9053782212687955,0.6715006113039621,-8.81926085673185,-0.8810730352658132,-1.3944119906738148,9.675034577039927,0.01255621016076722,0.01236562029036812,-0.16798794050445423,34.38408113962535,24.316689133878004,-59.5
1771538430.5360057,3.676610990787253,0.6662684061329829,-8.815485571661,-0.829269778190404,-1.3328510412273684,9.700111348438716,0.014742980863244225,0.017362202001481628,-0.16035212502697901,34.38408113962535,24.316689133878004,-59.5
1771538430.569081,-18.43734486492728,-11.683939025132855,126.07320814767594,-0.8070531934434605,-1.2865182042874024,9.740215441629955,0.003750501098794507,0.022173097546931034,-0.1636246173744684,35.06052141171257,24.771102005943227,-58.5625
1771538430.6136148,-18.43734486492728,-11.683939025132855,126.07320814767594,-0.8070531934434605,-1.2865182042874024,9.740215441629955,0.003750501098794507,0.022173097546931034,-0.1636246173744684,35.06052141171257,24.771102005943227,-58.5625
1771538430.642113,4.741055603358529,0.6530182624798283,-8.804387934553377,-0.7564192835213672,-1.2173620681829795,9.815831265877941,0.017362202001481628,-0.014742980863244225,-0.10581058590215622,35.06052141171257,24.771102005943227,-58.5625
1771538430.676783,4.741055603358529,0.6530182624798283,-8.804387934553377,-0.7564192835213672,-1.2173620681829795,9.815831265877941,0.017362202001481628,-0.014742980863244225,-0.10581058590215622,35.06052141171257,24.771102005943227,-58.5625
1771538430.7369401,4.741055603358529,0.6530182624798283,-8.804387934553377,-0.7564192835213672,-1.2173620681829795,9.815831265877941,0.017362202001481628,-0.014742980863244225,-0.10581058590215622,35.06052141171257,24.771102005943227,-58.5625
1771538430.7848012,5.322427078379124,0.6175493023358775,-8.770903763056412,-0.6857888174099087,-1.2269095988694898,9.810535530594942,0.020426132837316934,0.01130277399134572,-0.10690141668465268,35.57947088938015,25.021546989180163,-59.0
1771538430.8598714,7.016622295664056,0.5794714836886747,-8.784877797624409,-0.7766864529667172,-1.1729103552909785,9.720038373531041,-0.0008087264718235997,0.025359184591630744,-0.12762720155208535,35.933649575833535,24.11608028186169,-59.5
1771538430.903583,7.476584744977643,0.5742703803311547,-8.79401185219383,-0.7373912829370554,-1.1842978182444819,9.659813526424498,0.020365054732884736,0.022046037633331638,-0.11453723216212788,35.933649575833535,24.11608028186169,-59.5
1771538430.9910622,8.010539558362845,0.535325658158051,-8.791769286040852,-0.8372739422817709,-1.1878374754943648,9.740158584894216,0.01180610994100832,0.007931000780981912,-0.11562806294462433,36.89637289195982,24.445200421912126,-58.5625
1771538431.0234177,8.363455882215781,0.5065843028703196,-8.798916504785542,-0.8853578800786022,-1.19824014699993,9.793627323792702,0.001497748587150302,-0.010181301440258616,-0.11671889372712078,36.89637289195982,24.445200421912126,-58.5625
1771538431.049551,8.667837711343218,0.44613011736283914,-8.785483494148407,-0.9173572035496137,-1.2051630086814287,9.474628331268839,0.01648994557285833,0.0023089269113414027,-0.1308996938995747,36.35964486468382,25.089442631594494,-59.0625
1771538431.0786593,8.667837711343218,0.44613011736283914,-8.785483494148407,-0.9173572035496137,-1.2051630086814287,9.474628331268839,0.01648994557285833,0.0023089269113414027,-0.1308996938995747,36.35964486468382,25.089442631594494,-59.0625
1771538431.0973587,8.89371613916614,0.42781942137883244,-8.787138378727011,-0.910487653851551,-1.1454160989757098,9.262338065196444,0.010117771483458916,-0.006809528229894812,-0.10253809355466686,36.35964486468382,25.089442631594494,-59.0625
1771538431.1275623,9.393880603070214,0.41520383111429515,-8.786206284542889,-0.8446265244831748,-1.1324787618043675,9.756632488953603,0.012495132056335023,0.02310888393235404,-0.11562806294462433,35.59010992298666,24.26643156027944,-59.75
1771538431.1487527,9.210366123957572,0.4078193180838563,-8.784575287341546,-0.8283769629575379,-1.1117985047168693,10.085579906333486,0.02430124199734334,0.03103988471333595,-0.11780972450961724,35.59010992298666,24.26643156027944,-59.75
1771538431.1772413,9.576935224854614,0.4023665802157447,-8.793281211447242,-0.8811753751383642,-1.260071135054613,10.297800514601738,0.015429551126203428,0.013489544693822722,-0.11235557059713497,35.59010992298666,24.26643156027944,-59.75
1771538431.2036045,9.576935224854614,0.4023665802157447,-8.793281211447242,-0.8811753751383642,-1.260071135054613,10.297800514601738,0.015429551126203428,0.013489544693822722,-0.11235557059713497,35.59010992298666,24.26643156027944,-59.75
1771538431.2297268,9.338932107092532,0.4398552892599275,-8.784698697713699,-0.9163121286477949,-1.358744914230574,10.255049814842167,0.024677518033406544,0.04278246469754457,-0.14726215563702155,35.7298221677979,25.36508664202703,-58.5625
1771538431.2509627,9.500079150215019,0.45024461978835034,-8.777629430485602,-0.9061657908286899,-1.3477993110360726,10.025892999269615,-0.0015612785439500026,0.0018740246232135031,-0.1407171709420428,35.7298221677979,25.36508664202703,-58.5625
1771538431.290485,9.500079150215019,0.45024461978835034,-8.777629430485602,-0.9061657908286899,-1.3477993110360726,10.025892999269615,-0.0015612785439500026,0.0018740246232135031,-0.1407171709420428,35.7298221677979,25.36508664202703,-58.5625
1771538431.3209507,10.016013560329737,0.4078560693865554,-8.771020540764711,-0.8406714225357785,-1.2171193296883893,9.42648652291417,0.019177600372630433,0.01661210178172273,-0.13199052468207118,35.75823975101283,23.715284020207008,-58.25
1771538431.3565493,10.016013560329737,0.4078560693865554,-8.771020540764711,-0.8406714225357785,-1.2171193296883893,9.42648652291417,0.019177600372630433,0.01661210178172273,-0.13199052468207118,35.75823975101283,23.715284020207008,-58.25
1771538431.3857565,9.77791576340751,0.3586866970123839,-8.76647995979871,-0.7874351769124927,-1.1556806525532006,9.48787383097924,-0.0021232407456773035,0.0033106951059316057,-0.1308996938995747,35.75823975101283,23.715284020207008,-58.25
1771538431.4060733,10.139332787329494,0.33269399227206575,-8.781619301795018,-0.7640776538575208,-1.1423741835867218,9.528726398755381,-0.008805709061972714,0.009807477256562917,-0.11126473981463851,36.32016680548443,24.219813985078147,-59.0
1771538431.428785,10.550498849632868,0.3240307410502011,-8.792611197523609,-0.7485334831850657,-1.133518877132528,9.425453969671864,-0.011490912009377317,0.014554842845212624,-0.10144726277217041,36.32016680548443,24.219813985078147,-59.0
1771538431.4512327,10.550498849632868,0.3240307410502011,-8.792611197523609,-0.7485334831850657,-1.133518877132528,9.425453969671864,-0.011490912009377317,0.014554842845212624,-0.10144726277217041,36.32016680548443,24.219813985078147,-59.0
1771538431.4711487,10.281826187469889,0.2966703973547929,-8.795550398596077,-0.781481314229967,-1.1597990086266259,9.356727321745405,-0.004556775718250606,0.02223662750373074,-0.12435470920459599,35.933649575833535,24.11608028186169,-57.75
1771538431.5129821,10.281826187469889,0.2966703973547929,-8.795550398596077,-0.781481314229967,-1.1597990086266259,9.356727321745405,-0.004556775718250606,0.02223662750373074,-0.12435470920459599,35.933649575833535,24.11608028186169,-57.75
1771538431.5422285,10.642760203670024,0.2780042153096396,-8.786897808456684,-0.8313776505310632,-1.216167272542028,9.371202516009056,0.008060512546948815,0.02385898415211294,-0.11562806294462433,35.933649575833535,24.11608028186169,-57.75
1771538431.56313,10.642760203670024,0.2780042153096396,-8.786897808456684,-0.8313776505310632,-1.216167272542028,9.371202516009056,0.008060512546948815,0.02385898415211294,-0.11562806294462433,35.933649575833535,24.11608028186169,-57.75
1771538431.603196,11.319147891575367,0.25461819661071866,-8.779099838996798,-0.8366131821687423,-1.2148005925285776,9.410941601458875,0.006684920168662912,0.01255375830839972,-0.12980886311707826,36.49557663030514,24.62061024673283,-59.0625
1771538431.639548,10.982814743672627,0.2417637207537655,-8.797917395799816,-0.858873864663668,-1.256793746793992,9.407281513545184,-0.002995497174300604,0.020362602880517233,-0.17016960206944712,36.49557663030514,24.62061024673283,-59.0625
1771538431.6596153,10.982814743672627,0.2417637207537655,-8.797917395799816,-0.858873864663668,-1.256793746793992,9.407281513545184,-0.002995497174300604,0.020362602880517233,-0.17016960206944712,36.49557663030514,24.62061024673283,-59.0625
1771538431.7066002,11.182735152280513,0.2106799759319337,-8.789813842150995,-0.871005743813814,-1.2786107697851345,9.508544228851385,0.006687372021030414,0.031604298767430754,-0.15707963267948966,36.62072888152728,23.815377725026195,-58.5625
1771538431.729575,12.03551003505816,0.1407520564432562,-8.802274654913257,-0.8484346134751596,-1.3065415367841748,9.575933434709013,0.012368072142735621,0.00649433029826381,-0.1265363707695889,36.62072888152728,23.815377725026195,-58.5625
1771538431.7501533,12.03551003505816,0.1407520564432562,-8.802274654913257,-0.8484346134751596,-1.3065415367841748,9.575933434709013,0.012368072142735621,0.00649433029826381,-0.1265363707695889,36.62072888152728,23.815377725026195,-58.5625
1771538431.787649,12.277061505376679,0.17269253431997872,-8.79783373327953,-0.91615463142682,-1.2889173390564386,9.670956874030301,0.0048719736498816085,0.0002492161224638002,-0.15817046346198613,36.788858709553445,23.264230184953764,-58.25
1771538431.8230968,12.277061505376679,0.17269253431997872,-8.79783373327953,-0.91615463142682,-1.2889173390564386,9.670956874030301,0.0048719736498816085,0.0002492161224638002,-0.15817046346198613,36.788858709553445,23.264230184953764,-58.25
1771538431.8601477,12.44876404348398,0.13268902497103813,-8.792551339499637,-0.8489747736322828,-1.2459819706418702,9.811131480685596,0.01848857825730373,0.0014342186303506017,-0.12762720155208535,36.788858709553445,23.264230184953764,-58.25
1771538431.8919363,12.44876404348398,0.13268902497103813,-8.792551339499637,-0.8489747736322828,-1.2459819706418702,9.811131480685596,0.01848857825730373,0.0014342186303506017,-0.12762720155208535,36.788858709553445,23.264230184953764,-58.25
1771538431.9232252,13.030281271235316,0.042129985717036356,-8.762541500344113,-0.7745150235427631,-1.1983939448986811,9.939735104355607,0.007933452633349413,0.007244430518022711,-0.12326387842209953,37.26833012802163,22.645046521674352,-57.75
1771538432.0102656,13.285046751834017,-0.01155966659843648,-8.742456132189185,-0.7560563749945897,-1.1888041390815636,9.959894385151651,0.01592798337113103,0.003745597394059505,-0.1439896632895322,37.73702203209064,21.689462721549965,-58.25
1771538432.0266678,12.973442238224077,0.0023747344632770676,-8.722608687506682,-0.7566071936158917,-1.1950622542488654,9.872956810107915,0.015866905266698827,0.014488861036045422,-0.18762289458939044,37.73702203209064,21.689462721549965,-58.25
1771538432.1218479,12.973442238224077,0.0023747344632770676,-8.722608687506682,-0.7566071936158917,-1.1950622542488654,9.872956810107915,0.015866905266698827,0.014488861036045422,-0.18762289458939044,37.73702203209064,21.689462721549965,-58.25
1771538432.1550403,12.635504472577834,-0.01661711983656251,-8.69842549166725,-0.7556325790642661,-1.196162483945867,9.808410601658016,0.0005619622017273008,-0.0014366704827181024,-0.17889624832941878,36.788858709553445,23.264230184953764,-57.0625
1771538432.1916213,12.791055861881018,-0.04914702299298203,-8.697819376329779,-0.7563251621583721,-1.1999591505579612,9.752075374133723,0.014867588924476125,0.014926215176540823,-0.1559888018969932,36.788858709553445,23.264230184953764,-57.0625
1771538432.2206254,12.791055861881018,-0.04914702299298203,-8.697819376329779,-0.7563251621583721,-1.1999591505579612,9.752075374133723,0.014867588924476125,0.014926215176540823,-0.1559888018969932,36.788858709553445,23.264230184953764,-57.0625
1771538432.2867773,13.28801548885503,-0.08012558114682167,-8.669210694433843,-0.7639864643617293,-1.206023100163843,9.719741429484756,0.01599396518029823,0.03110341467013565,-0.15817046346198613,37.30780818722102,23.514675168190696,-57.5
1771538432.342381,13.567261966770207,-0.047902144276672914,-8.658452142016168,-0.8639626046338811,-1.3209306542435022,9.661899609226445,0.01586935711906633,0.033539401495076455,-0.1636246173744684,38.366844728976574,21.41381871111743,-57.0625
1771538432.393368,13.270769191838218,-0.02820737575372233,-8.651872277490522,-0.8730585840110918,-1.3766485531606285,9.621122828232341,-0.0018104946664138028,0.006745998273095111,-0.1810779098944117,38.366844728976574,21.41381871111743,-57.0625
1771538432.4509358,13.270769191838218,-0.02820737575372233,-8.651872277490522,-0.8817942130599884,-1.4198571445584847,9.647508123304366,0.004561679422985608,0.015864453414331323,-0.15162547876700738,38.180795870549346,21.768137878363465,-56.5625
1771538432.5052354,12.632142578972822,-0.0011248162110117628,-8.656101150341547,-0.8817942130599884,-1.4198571445584847,9.647508123304366,0.004561679422985608,0.015864453414331323,-0.15162547876700738,38.180795870549346,21.768137878363465,-56.5625
1771538432.524423,12.10215873780097,-0.0033337078470347106,-8.636724678522613,-0.848713509068062,-1.359742174327956,9.66841235413906,0.0010017681945902028,0.018613186318535632,-0.1505346479845109,38.180795870549346,21.768137878363465,-56.5625
1771538432.5401719,11.929865169519822,0.017050520328224524,-8.625757040291653,-0.8818667575842101,-1.3540149896919227,9.682323886243989,0.004185403386922407,0.004121873430122706,-0.1559888018969932,38.180795870549346,21.768137878363465,-56.5625
1771538432.5747426,11.560424722789099,0.03322004651148697,-8.648437276815677,-0.9039298741256544,-1.3502036122934868,9.694926967165141,0.006372174089399411,0.009118455141236215,-0.16689710972195776,35.80429540304354,20.079278639721988,-55.75
1771538432.61727,11.560424722789099,0.03322004651148697,-8.648437276815677,-0.9039298741256544,-1.3502036122934868,9.694926967165141,0.006372174089399411,0.009118455141236215,-0.16689710972195776,35.80429540304354,20.079278639721988,-55.75
1771538432.6692965,11.560424722789099,0.03322004651148697,-8.648437276815677,-0.9039298741256544,-1.3502036122934868,9.694926967165141,0.006372174089399411,0.009118455141236215,-0.16689710972195776,35.80429540304354,20.079278639721988,-55.75
1771538432.7222793,10.269301594626192,0.12025708287942523,-8.628963691120314,-0.9369994879574892,-1.3396201140643724,9.70665928843985,0.007933452633349413,0.007244430518022711,-0.17671458676442586,37.865673800917406,20.26868653496119,-56.25
1771538432.7820172,9.94313508810168,0.15139010843034267,-8.619501425886407,-0.9164788828771288,-1.2854634146606567,9.714467017189552,0.0008136301765586018,0.01274189632643132,-0.1930770485018727,37.865673800917406,20.26868653496119,-56.25
1771538432.8134055,9.424120133155046,0.14715530450833672,-8.639030031740658,-0.9028226494263273,-1.2494227361774555,9.74307875540567,0.008309728669412616,0.01898701050223133,-0.14508049407202864,37.64014688329079,19.753377055690887,-57.5
1771538432.8553803,9.424120133155046,0.14715530450833672,-8.639030031740658,-0.9028226494263273,-1.2494227361774555,9.74307875540567,0.008309728669412616,0.01898701050223133,-0.14508049407202864,37.64014688329079,19.753377055690887,-57.5
1771538432.8825197,8.914040086334111,0.14032978155673148,-8.623437886224668,-0.8722832463411674,-1.2348263145850287,9.738703765623203,0.002250300659276705,0.013303858528158623,-0.13962634015954636,37.64014688329079,19.753377055690887,-57.5
1771538432.902101,8.914040086334111,0.14032978155673148,-8.623437886224668,-0.8722832463411674,-1.2348263145850287,9.738703765623203,0.002250300659276705,0.013303858528158623,-0.13962634015954636,37.64014688329079,19.753377055690887,-57.5
1771538432.9311826,8.436895082943211,0.14378170890998787,-8.583058904591763,-0.8680537530281396,-1.2618862715373098,9.752517817331405,-0.0015612785439500026,0.0018740246232135031,-0.16907877128695067,36.87775145759552,18.79079422035725,-55.75
1771538432.9508722,8.436895082943211,0.14378170890998787,-8.583058904591763,-0.8680537530281396,-1.2618862715373098,9.752517817331405,-0.0015612785439500026,0.0018740246232135031,-0.16907877128695067,36.87775145759552,18.79079422035725,-55.75
1771538432.9664297,8.103454135146123,0.11975280036063733,-8.561482811620287,-0.8276860831253139,-1.1940890415144285,9.761710914430145,0.008121590651381015,0.013115720510127021,-0.15271630954950383,36.87775145759552,18.79079422035725,-55.75
1771538432.9901664,7.92308727990323,0.09656809986722863,-8.578920869623252,-0.7899051237760153,-1.1573999310822145,9.767828817855733,-0.007806392719750013,0.009370123116067516,-0.16689710972195776,36.87775145759552,18.79079422035725,-55.75
1771538433.0528045,7.0849585840662765,0.01831785286433785,-8.576529439609663,-0.7431870721132144,-1.1334603728872317,9.786847512669723,0.00587128999210431,-0.00018813801803160054,-0.19962203319685143,38.09455975535601,19.076936783603664,-55.0625
1771538433.1047788,7.0849585840662765,0.01831785286433785,-8.576529439609663,-0.7431870721132144,-1.1334603728872317,9.786847512669723,0.00587128999210431,-0.00018813801803160054,-0.19962203319685143,38.09455975535601,19.076936783603664,-55.0625
1771538433.143595,6.722684578575515,-0.00701036611275088,-8.583099341531648,-0.7677783695166946,-1.2116688669328506,9.771176496360695,-0.0008722564286233003,0.01705190777458563,-0.16253378659197193,37.26412820645377,17.80301235782801,-54.5625
1771538433.185309,6.722684578575515,-0.00701036611275088,-8.583099341531648,-0.7677783695166946,-1.2116688669328506,9.771176496360695,-0.0008722564286233003,0.01705190777458563,-0.16253378659197193,37.26412820645377,17.80301235782801,-54.5625
1771538433.2422576,5.756501231969349,0.014021160497966466,-8.580217424267088,-0.7523374463075985,-1.1826981908661551,9.70053559933201,0.012683270074366624,0.02898017392445835,-0.12871803233458182,37.564830763289265,18.490091663521753,-54.5625
1771538433.3108466,5.316014932195294,-0.01047797107451194,-8.585153781809316,-0.7273087242967533,-1.1297092931372081,9.713736882201694,0.010369439458290218,0.007369038579254611,-0.11780972450961724,37.564830763289265,18.490091663521753,-54.5625
1771538433.355989,5.316014932195294,-0.01047797107451194,-8.585153781809316,-0.7273087242967533,-1.1297092931372081,9.713736882201694,0.010369439458290218,0.007369038579254611,-0.11780972450961724,37.564830763289265,18.490091663521753,-54.5625
1771538433.3813431,5.316014932195294,-0.01047797107451194,-8.585153781809316,-0.7273087242967533,-1.1297092931372081,9.713736882201694,0.010369439458290218,0.007369038579254611,-0.11780972450961724,37.564830763289265,18.490091663521753,-54.5625
1771538433.3999894,4.515875268412659,-0.07053260002948088,-8.584487792584833,-0.7106523893876802,-1.094445773623366,9.658965066044408,0.009932085317794817,0.00636972223703191,-0.14180800172453928,37.29254578966871,16.153209736007987,-55.0625
1771538433.4523563,4.170294750014611,-0.089661141522793,-8.58253924519203,-0.7156619228618052,-1.1077520077755563,9.803151066428256,-0.003997265368890807,0.0017494165619816031,-0.13199052468207118,37.29254578966871,16.153209736007987,-55.0625
1771538433.4952865,3.8637137187851773,-0.039394949587626744,-8.557430033971992,-0.7159312353895692,-1.1179483361545188,9.798751887800966,0.021366822927474938,0.04065922395186727,-0.13308135546456762,37.63608544251557,16.00285845759024,-55.0625
1771538433.5428557,3.503551310593683,-0.045887471870375236,-8.552431458424461,-0.7099815077901566,-1.1274162351723775,9.795824283566551,0.01118061778248132,0.0010603944466549013,-0.17562375598192942,37.63608544251557,16.00285845759024,-55.0625
1771538433.5975995,2.994850620229459,-0.09074899195040395,-8.553734889741882,-0.7060220305355597,-1.1337170162054007,9.79387599565203,0.00512364162471291,0.014427782931613224,-0.11235557059713497,38.867313253072496,17.101373058545185,-56.5625
1771538433.632152,2.7659429517396203,-0.12312275899487003,-8.549698259716868,-0.7033870426528844,-1.1379101155985416,9.916348564979534,0.009181985098035916,0.0019351027276457023,-0.12871803233458182,38.867313253072496,17.101373058545185,-56.5625
1771538433.6526453,2.7659429517396203,-0.12312275899487003,-8.549698259716868,-0.7033870426528844,-1.1379101155985416,9.916348564979534,0.009181985098035916,0.0019351027276457023,-0.12871803233458182,38.867313253072496,17.101373058545185,-56.5625
1771538433.6770637,2.3953669493564846,-0.17290306410959003,-8.547227621781978,-0.7328551869198681,-1.1452935310718004,9.997852691758748,-0.005998349905703711,-0.016426415616058627,-0.14180800172453928,37.81149526733628,16.403654719244923,-54.5625
1771538433.7132347,2.1104267565679726,-0.2078722614810366,-8.549977707734664,-0.7197082110695362,-1.1170748140379356,10.042057442547604,0.004124325282490208,0.014865137072108625,-0.14180800172453928,37.81149526733628,16.403654719244923,-54.5625
1771538433.7533724,1.8033362682800487,-0.24141786408703467,-8.56594952103494,-0.7463990985638627,-1.1375568227070072,10.071475210398166,0.014430234783980726,0.013926898834318123,-0.12871803233458182,36.69114067599771,14.779051124620505,-54.25
1771538433.791175,1.503667828303298,-0.2623396438359867,-8.572311826647793,-0.7354274239284835,-1.1272485012414142,10.091052406284716,0.00018813801803160057,0.005871289992104309,-0.1265363707695889,36.69114067599771,14.779051124620505,-54.25
1771538433.843378,1.2244239647898545,-0.28175149018982576,-8.578277550984952,-0.7875048195174857,-1.130915515982839,10.030488353894581,0.01649239742522583,0.021359467370372438,-0.12871803233458182,37.33524240488743,14.224263586150801,-53.5
1771538433.8681145,0.9547145919195268,-0.317183823492294,-8.573914699622676,-0.8302088136856709,-1.1517427295646825,9.990183653573741,-0.0035599112283954057,0.0027487329042043046,-0.15271630954950383,37.33524240488743,14.224263586150801,-53.5
1771538433.8991165,0.9547145919195268,-0.317183823492294,-8.573914699622676,-0.8302088136856709,-1.1517427295646825,9.990183653573741,-0.0035599112283954057,0.0027487329042043046,-0.15271630954950383,37.33524240488743,14.224263586150801,-53.5
1771538433.9315894,-146.46508309116524,-4.072764249310938,-1.032540402274496,-0.9088133391496054,-1.1801536296466255,10.020228224767655,0.013868272582253423,0.015363569317036224,-0.1538071403320003,37.43547659049926,14.453290021382049,-53.75
1771538433.9537277,0.25619525475846083,-0.3764015072831949,-8.573289350463963,-0.9243500603064425,-1.2151549045732704,10.100434562009102,0.010181301440258618,0.0014977485871503018,-0.17998707911191522,37.43547659049926,14.453290021382049,-53.75
1771538433.9734914,0.0071734542050493925,-0.3936375587670843,-8.579464911711485,-0.8912099712551669,-1.2392196201442,10.153810983479792,0.00587128999210431,-0.00018813801803160054,-0.1439896632895322,37.43547659049926,14.453290021382049,-53.75
1771538434.0304549,-0.44038249045043093,-0.4423577319368772,-8.573863761413405,-0.8316026228410525,-1.169429090441068,10.01873169864155,-0.005060111667913209,-0.006120506114568111,-0.16471544815696484,36.01470040391049,14.32463825255528,-53.5
1771538434.0683973,-0.7180664579330504,-0.4631699770265557,-8.572743559696068,-0.7534375880117863,-1.1434840650577591,9.868625932784434,0.006435704046199113,0.01742573195828133,-0.16580627893946132,36.01470040391049,14.32463825255528,-53.5
1771538434.1093657,-1.1330919989965287,-0.46678286887050746,-8.600949155608037,-0.7736258772411619,-1.0909651878656588,9.768732222397796,0.008996298932371817,0.015114353194572425,-0.15707963267948966,37.23850773688022,13.379693486037416,-53.5
1771538434.123156,-1.1330919989965287,-0.46678286887050746,-8.600949155608037,-0.7736258772411619,-1.0909651878656588,9.768732222397796,0.008996298932371817,0.015114353194572425,-0.15707963267948966,37.23850773688022,13.379693486037416,-53.5
1771538434.1534636,-1.403153790340637,-0.478869556127585,-8.605588213083218,-0.6853563100376378,-1.0822686054957682,9.735705191094544,-0.0009968644898552005,0.019487894599526434,-0.15926129424448257,37.23850773688022,13.379693486037416,-53.5
1771538434.1910012,-1.7715761145945588,-0.42684133844896716,-8.609965479614846,-0.7277416083900183,-1.0322222467709794,9.713726070698343,0.007872374528917214,0.01798769416000863,-0.15271630954950383,36.433134734380936,12.163025669069576,-54.25
1771538434.2113307,-1.7715761145945588,-0.42684133844896716,-8.609965479614846,-0.7277416083900183,-1.0322222467709794,9.713726070698343,0.007872374528917214,0.01798769416000863,-0.15271630954950383,36.433134734380936,12.163025669069576,-54.25
1771538434.2426543,-2.2781902325915055,-0.42233278018519277,-8.607377989968068,-0.7279936657428311,-1.0768775520460185,9.699099211597533,-0.003870205455291405,0.018363970196071833,-0.13962634015954636,36.433134734380936,12.163025669069576,-54.25
1771538434.2829185,-2.2781902325915055,-0.42233278018519277,-8.607377989968068,-0.7279936657428311,-1.0768775520460185,9.699099211597533,-0.003870205455291405,0.018363970196071833,-0.13962634015954636,36.433134734380936,12.163025669069576,-54.25
1771538434.3337684,-2.9499655024765143,-0.5073670446110278,-8.610822037669662,-0.7469379017702338,-1.1494978234216617,9.632498301234236,-0.010616203728386515,0.016553475529658027,-0.18216874067690814,35.538447541461636,12.14524711946116,-53.875
1771538434.3530302,-2.9499655024765143,-0.5073670446110278,-8.610822037669662,-0.7469379017702338,-1.1494978234216617,9.632498301234236,-0.010616203728386515,0.016553475529658027,-0.18216874067690814,35.538447541461636,12.14524711946116,-53.875
1771538434.3913183,-3.405193418586319,-0.43558053610221853,-8.603771179692362,-0.7555215446523227,-1.1886323746832357,9.681839267173322,0.007559628449653713,0.014552390992845122,-0.17780541754692233,35.538447541461636,12.14524711946116,-53.875
1771538434.4217792,-3.405193418586319,-0.43558053610221853,-8.603771179692362,-0.7555215446523227,-1.1886323746832357,9.681839267173322,0.007559628449653713,0.014552390992845122,-0.17780541754692233,35.538447541461636,12.14524711946116,-53.875
1771538434.4762588,-4.2844266318651805,-0.5359727094072354,-8.357148498299303,-0.7213956745963402,-1.2321112978699469,9.714675128831079,0.05458857463855289,-0.016746517252424632,-0.13744467859455345,35.538447541461636,12.14524711946116,-54.25
1771538434.522086,-4.343978529145002,-0.5875608319212257,-8.37219532675342,-0.579170723759714,-1.313351985010455,9.736527027963708,-0.02917321564722495,-0.03128910083579975,-0.007635815477475192,35.538447541461636,12.14524711946116,-54.25
1771538434.5685492,-4.343978529145002,-0.5875608319212257,-8.37219532675342,-0.579170723759714,-1.313351985010455,9.736527027963708,-0.02917321564722495,-0.03128910083579975,-0.007635815477475192,35.538447541461636,12.14524711946116,-54.25
1771538434.598585,-3.7556206625928743,-0.5151341636715376,-8.583265880860475,-0.5167098843200614,-1.4409641797231805,9.553707632002922,-0.032852831232117255,0.011996699811407422,0.24107360293171676,34.686597444553705,11.290037985741254,-53.0625
1771538434.6402004,-3.1383353083254524,-0.47197772852241704,-8.608010061933012,-0.7715131984970099,-1.9694584185737154,9.391902025729651,0.03523019180499336,0.017921712350841428,0.19853120241435498,34.686597444553705,11.290037985741254,-53.0625
1771538434.6702876,-3.1383353083254524,-0.47197772852241704,-8.608010061933012,-0.7715131984970099,-1.9694584185737154,9.391902025729651,0.03523019180499336,0.017921712350841428,0.19853120241435498,34.686597444553705,11.290037985741254,-53.0625
1771538434.7349787,0.3045641821617661,-0.4559276272972502,-8.519544741706426,-0.8326336712887171,-2.049583972260626,9.439982798698813,-0.003931283559723605,0.02910723383805775,0.016362461737446838,35.731635915890756,11.651356188196539,-52.5625
1771538434.7592478,0.3045641821617661,-0.4559276272972502,-8.519544741706426,-0.8326336712887171,-2.049583972260626,9.439982798698813,-0.003931283559723605,0.02910723383805775,0.016362461737446838,35.731635915890756,11.651356188196539,-52.5625
1771538434.7833076,3.3805686140279363,-0.4509092390546055,-8.495831053694197,-0.7340060663703153,-1.6832501663477655,9.593863691262902,0.0038677536029239055,-0.03741451065510286,-0.018544123302439753,35.388096263043884,11.801707466614289,-53.875
1771538434.8528872,3.3736925462825806,-0.449788534780212,-8.502707121439547,-0.7683593661424122,-1.4760304851956716,9.696269706302102,-0.003313146958299107,-0.021173781204708336,-0.011999138607461015,35.388096263043884,11.801707466614289,-53.875
1771538434.9014173,3.3736925462825806,-0.449788534780212,-8.502707121439547,-0.7683593661424122,-1.4760304851956716,9.696269706302102,-0.003313146958299107,-0.021173781204708336,-0.011999138607461015,35.388096263043884,11.801707466614289,-53.875
1771538434.9348197,3.349994751735598,-0.42781057690477997,-8.511155092002909,-0.7329960586461368,-1.3636104878145094,9.764419765360548,0.0066189383594957105,-0.014804058967676425,-0.001090830782496456,32.15232522104296,7.2141797267800944,-58.25
1771538434.9720285,3.336526141424061,-0.4304606786601555,-8.50456422640646,-0.709462172541394,-1.2887962353710016,9.849914208865735,0.005998349905703711,0.016426415616058627,-0.003272492347489368,32.15232522104296,7.2141797267800944,-58.25
1771538434.9891062,3.336526141424061,-0.4304606786601555,-8.50456422640646,-0.709462172541394,-1.2887962353710016,9.849914208865735,0.005998349905703711,0.016426415616058627,-0.003272492347489368,32.15232522104296,7.2141797267800944,-58.25
1771538435.022987,3.385118953401868,-0.4200113088217449,-8.502773361715274,-0.6911182778473107,-1.2328792340215848,9.803111343056026,-0.0034988331239632063,-0.007994530737781613,0.020725784867432664,29.847641355934048,7.404149545189886,-58.25
1771538435.0707898,3.385118953401868,-0.4200113088217449,-8.502773361715274,-0.6911182778473107,-1.2328792340215848,9.803111343056026,-0.0034988331239632063,-0.007994530737781613,0.020725784867432664,29.847641355934048,7.404149545189886,-58.25
1771538435.130927,3.3495801523718995,-0.42265811622083294,-8.50274381603097,-0.694233001038682,-1.1889612033021058,9.771964558681931,-0.0048719736498816085,-0.0002492161224638002,-0.028361600344907856,29.847641355934048,7.404149545189886,-58.25
1771538435.1585367,3.3495801523718995,-0.42265811622083294,-8.50274381603097,-0.694233001038682,-1.1889612033021058,9.771964558681931,-0.0048719736498816085,-0.0002492161224638002,-0.028361600344907856,29.847641355934048,7.404149545189886,-58.25
1771538435.1999993,3.2363055099103852,-0.43140215942641885,-8.531498180160531,-0.6976469927198569,-1.1627987204939514,9.694369822588921,0.002997949026668105,-0.0013120624214862024,-0.04581489286485115,31.053810620088015,8.445407537337019,-56.5625
1771538435.2278762,3.140622051078306,-0.40150473038132783,-8.565437020424387,-0.7765308670246598,-1.1118584256628306,9.64273139250902,-0.026045754854589945,0.0030639308358353066,-0.050178215994836975,31.053810620088015,8.445407537337019,-56.5625
1771538435.2848418,2.703634754932353,-0.4262454783038199,-8.598001367173532,-0.8627439593972157,-1.1216251323546487,9.615056817544545,0.0012509843170540032,0.013741212668654024,-0.13199052468207118,32.4674472906749,8.713631070182368,-57.0625
1771538435.2999997,2.703634754932353,-0.4262454783038199,-8.598001367173532,-0.8627439593972157,-1.1216251323546487,9.615056817544545,0.0012509843170540032,0.013741212668654024,-0.13199052468207118,32.4674472906749,8.713631070182368,-57.0625
1771538435.3297026,2.528955407006135,-0.4104510661923195,-8.597614290077626,-0.8959766018688161,-1.0729641978527988,9.67692237802661,0.013118172362494523,0.010928949807650018,-0.1559888018969932,32.4674472906749,8.713631070182368,-57.0625
1771538435.3702884,2.528955407006135,-0.4104510661923195,-8.597614290077626,-0.8959766018688161,-1.0729641978527988,9.67692237802661,0.013118172362494523,0.010928949807650018,-0.1559888018969932,32.4674472906749,8.713631070182368,-57.0625
1771538435.3903713,4.83565438704933,-0.364640003867016,-8.58609193498546,-0.8941612035480002,-1.1277349155893335,9.637810536468166,0.00012460806123190007,-0.0024359868249408043,-0.17016960206944712,31.37957172332647,9.189743451838572,-57.0625
1771538435.4211638,7.260052484903592,-0.38867509536341993,-8.583150435827106,-0.8232193290930683,-1.0632513263433923,9.658613606721392,0.0005619622017273008,-0.0014366704827181024,-0.1461713248545251,31.37957172332647,9.189743451838572,-57.0625
1771538435.48078,9.355455519289693,-0.41343949922573286,-8.591453999232737,-0.7917278415347402,-1.123001924730869,9.63231647710156,0.0038751091600264073,0.019737110721990234,-0.16689710972195776,30.77816660965548,7.815584840451089,-58.25
1771538435.5004506,11.586899544210626,-0.40769978535991924,-8.59814702719754,-0.7587000046281431,-1.1351849961478209,9.65495737158558,-0.0005570584969922963,0.03953775140078017,-0.15271630954950383,30.77816660965548,7.815584840451089,-58.25
1771538435.5335498,11.342151560380039,-0.3972172673674815,-8.595243245291082,-0.7591307389197448,-1.1444390530529793,9.696785527607886,0.006687372021030414,0.031604298767430754,-0.14289883250703572,30.77816660965548,7.815584840451089,-58.25
1771538435.5789087,13.204237225739016,-0.4413392607731731,-8.602897740058582,-0.7594173877791882,-1.150597524548773,9.724621698189612,-0.002311378763708904,-0.0025605948861727045,-0.14289883250703572,30.24857809838138,8.320255286114875,-58.25
1771538435.5995245,15.07625680711978,-0.41135643884225537,-8.610455555638659,-0.8210924893953373,-1.1533472215604283,9.75318169388331,0.01124414773928102,0.009367671263700016,-0.14944381720201447,30.24857809838138,8.320255286114875,-58.25
1771538435.646886,16.748992398276247,-0.4388461947481439,-8.605015121287167,-0.8222983920564183,-1.1726124306892725,9.77218805198141,0.010743263641985919,6.107810443219984e-05,-0.18216874067690814,30.24857809838138,8.320255286114875,-58.25
1771538435.671897,16.748992398276247,-0.4388461947481439,-8.605015121287167,-0.8222983920564183,-1.1726124306892725,9.77218805198141,0.010743263641985919,6.107810443219984e-05,-0.18216874067690814,30.24857809838138,8.320255286114875,-58.25
1771538435.724398,18.085499568458275,-0.47123999596176663,-8.615326910657569,-0.8110303030870567,-1.1578529278060352,9.80156212951736,0.014493764740780426,0.02223417565136324,-0.15162547876700738,29.404007998267993,8.416989954122082,-58.5625
1771538435.7461956,18.085499568458275,-0.47123999596176663,-8.615326910657569,-0.8110303030870567,-1.1578529278060352,9.80156212951736,0.014493764740780426,0.02223417565136324,-0.15162547876700738,29.404007998267993,8.416989954122082,-58.5625
1771538435.7798634,19.440305071350892,-0.5071759369371377,-8.614089136091485,-0.745306471007645,-1.173513029141737,9.821110249987589,0.01043296941508992,0.015676315396299725,-0.15271630954950383,29.404007998267993,8.416989954122082,-58.5625
1771538435.816639,19.440305071350892,-0.5071759369371377,-8.614089136091485,-0.745306471007645,-1.173513029141737,9.821110249987589,0.01043296941508992,0.015676315396299725,-0.15271630954950383,29.404007998267993,8.416989954122082,-58.5625
1771538435.8728492,21.731891161626425,-0.44241294964401323,-8.63755334577964,-0.7637026484276738,-1.2908883427482871,9.714638024944547,0.01118306963484882,0.020110934905685933,-0.1636246173744684,30.080448270355213,8.871402826187307,-58.5625
1771538435.9464972,23.90369821901116,-0.5289554478354248,-8.631803185417546,-0.8347611486457426,-1.3115571732467677,9.702113291890644,0.014491312888412924,0.0031836351923322046,-0.09926560120717749,31.204161898505763,8.78894719018389,-60.25
1771538435.9944212,23.90369821901116,-0.5289554478354248,-8.631803185417546,-0.8347611486457426,-1.3115571732467677,9.702113291890644,0.014491312888412924,0.0031836351923322046,-0.09926560120717749,31.204161898505763,8.78894719018389,-60.25
1771538436.039775,24.88266481731821,-0.5641351091068997,-8.616235269024244,-0.8258427188974671,-1.2985864791753445,9.74154771263404,0.0002541198271988027,0.03322910726818046,-0.1636246173744684,29.905038445534508,8.470606564532623,-59.75
1771538436.091907,24.262630771056454,-0.41639888676499764,-8.61845422858944,-0.8231593800014356,-1.2556684518556878,9.767790879127425,0.011556893818544519,0.01280297443086352,-0.16907877128695067,30.74974902644054,9.465387462271112,-60.25
1771538436.1134708,23.931928009567137,-0.40356850279617246,-8.615929505911856,-0.8508795681441975,-1.2945254569606697,9.785255413273395,-0.0004349022881279003,0.018051224116808328,-0.14508049407202864,30.74974902644054,9.465387462271112,-60.25
1771538436.1767018,23.931928009567137,-0.40356850279617246,-8.615929505911856,-0.8508795681441975,-1.2945254569606697,9.785255413273395,-0.0004349022881279003,0.018051224116808328,-0.14508049407202864,30.74974902644054,9.465387462271112,-60.25
1771538436.2023132,23.206895625123142,-0.41206807017648767,-8.631587063610528,-0.8384799453041482,-1.2499014108973014,9.806913200777867,0.00549746580840861,0.007119822456790811,-0.16144295580947549,30.574339201619832,9.06459120061643,-61.0625
1771538436.2859936,22.639538214727715,-0.4732975705833744,-8.622224976626232,-0.787512770706356,-1.206036104283941,9.821326216428755,0.007246882370390213,0.01111708782568162,-0.12762720155208535,30.574339201619832,9.06459120061643,-61.0625
1771538436.3187106,22.35395225139414,-0.5206563127537166,-8.632005205303846,-0.7535946853521702,-1.176844232740331,9.710493895876988,-0.007684236510885614,-0.01211640416790432,-0.11780972450961724,30.40620937359367,9.61573874068886,-62.6875
1771538436.3758001,22.35395225139414,-0.5206563127537166,-8.632005205303846,-0.7535946853521702,-1.176844232740331,9.710493895876988,-0.007684236510885614,-0.01211640416790432,-0.11780972450961724,30.40620937359367,9.61573874068886,-62.6875
1771538436.3994772,23.438764461184654,-0.5319080355766458,-8.616006048249229,-0.743872459038508,-1.2868971200623862,9.636736224627931,0.021613587197571237,0.016736709842954625,-0.07744898555724837,30.40620937359367,9.61573874068886,-62.6875
1771538436.4381967,23.438764461184654,-0.5319080355766458,-8.616006048249229,-0.743872459038508,-1.2868971200623862,9.636736224627931,0.021613587197571237,0.016736709842954625,-0.07744898555724837,30.40620937359367,9.61573874068886,-62.6875
1771538436.479185,25.38727662571526,-0.5510549537514429,-8.614185232507932,-0.787205800754028,-1.3821568395716335,9.447156626631443,-0.028794487758794247,-0.0004959803925600984,-0.11562806294462433,30.281057122371525,10.420971262395497,-63.0625
1771538436.553114,25.8688437330807,-0.5711321437600934,-8.611805537961509,-0.7999495173079015,-1.4087774063149179,9.320993521907651,0.016179651345962328,0.017924164203208928,-0.1636246173744684,30.281057122371525,10.420971262395497,-63.0625
1771538436.6152527,26.39936249600434,-0.6159434196674058,-8.615420279278238,-0.8086176187548101,-1.3935480989951423,9.237033385048191,0.002624124842972405,0.00599589805333621,-0.14289883250703572,31.02539303687308,10.095210159157043,-63.0625
1771538436.6856334,28.137178576273257,-0.6949780881986675,-8.608762548681872,-0.8745217864667957,-1.320580128119913,9.291547538205942,0.008309728669412616,0.01898701050223133,-0.16580627893946132,31.970337803390947,11.319017492126777,-64.5625
1771538436.719302,28.137178576273257,-0.6949780881986675,-8.608762548681872,-0.8745217864667957,-1.320580128119913,9.291547538205942,0.008309728669412616,0.01898701050223133,-0.16580627893946132,31.970337803390947,11.319017492126777,-64.5625
1771538436.7691317,27.8657820308427,-0.7153992420984308,-8.607061217864496,-0.8827604391661108,-1.3241243700560785,9.34789676841335,0.004874425502249109,0.019299756581494833,-0.16471544815696484,31.970337803390947,11.319017492126777,-64.5625
1771538436.7869725,-66.37381802011068,5.712900294568085,4.513965679359536,-0.8627607848756781,-1.2682579787297172,9.462334120922579,0.010183753292626118,0.020548289046181334,-0.17998707911191522,30.871823202435998,12.550245302683702,-64.25
1771538436.804592,-66.37381802011068,5.712900294568085,4.513965679359536,-0.8627607848756781,-1.2682579787297172,9.462334120922579,0.010183753292626118,0.020548289046181334,-0.17998707911191522,30.871823202435998,12.550245302683702,-64.25
1771538436.8640385,28.164861889045582,-0.5612918528418064,-8.622722526178297,-0.8279999060823972,-1.240467766707891,9.55521645920508,0.009682869195331017,0.01124169588691352,-0.16798794050445423,31.322877037689246,13.580864261224315,-64.6875
1771538436.9129033,28.125336367602205,-0.5361681016669064,-8.6324221271061,-0.8048669295499278,-1.2219736910443746,9.660515069963534,0.015617689144235027,0.01936083468592703,-0.14944381720201447,31.322877037689246,13.580864261224315,-64.6875
1771538436.9534411,28.125336367602205,-0.5361681016669064,-8.6324221271061,-0.8048669295499278,-1.2219736910443746,9.660515069963534,0.015617689144235027,0.01936083468592703,-0.14944381720201447,31.322877037689246,13.580864261224315,-64.6875
1771538436.9917035,28.014310169649903,-0.5194893030708013,-8.635237134369907,-0.8028839739903997,-1.240310850673773,9.73059011916073,0.0026876547997721056,0.014303174870381324,-0.13853550937704992,30.678634828006878,13.044136233948322,-64.25
1771538437.0291467,27.81178838153166,-0.537809302645782,-8.627811395411776,-0.8291446235685949,-1.2404434218481473,9.760498723075278,0.008744630957540515,0.0009357863854230009,-0.1832595714594046,30.678634828006878,13.044136233948322,-64.25
1771538437.0706475,27.81178838153166,-0.537809302645782,-8.627811395411776,-0.8291446235685949,-1.2404434218481473,9.760498723075278,0.008744630957540515,0.0009357863854230009,-0.1832595714594046,30.678634828006878,13.044136233948322,-64.25
1771538437.100976,27.83041841650895,-0.5771319375849077,-8.624208841843759,-0.8560090398495923,-1.2619829787575512,9.780402564879411,-0.005932368096536509,0.010931401660017518,-0.11999138607461016,31.9098626385638,14.142650834903266,-63.875
1771538437.1372554,27.741056471832547,-0.5995767312569957,-8.62388631464212,-0.8604752268788525,-1.2456725528770363,9.80702879608886,0.004810895545449409,0.010992479764449718,-0.1341721862470641,31.9098626385638,14.142650834903266,-63.875
1771538437.1871014,27.643980680250817,-0.6005313657856558,-8.619772626967292,-0.837972557609307,-1.2350129658730022,9.824748255524256,0.006684920168662912,0.01255375830839972,-0.13744467859455345,31.62357959452474,14.267943566918058,-63.0625
1771538437.245499,27.707915703090173,-0.6174763732805516,-8.607366299590494,-0.8229972825817108,-1.2279191297972067,9.68266521930249,0.01567876724866723,0.008617571043941114,-0.1505346479845109,31.62357959452474,14.267943566918058,-63.0625
1771538437.2770774,27.134159933046373,-0.49785725812058174,-8.620391013171334,-0.8473250984260062,-1.28486990157132,9.588110545868414,0.009120906993603716,0.01267836636963162,-0.1930770485018727,31.720454743324602,16.20402923277714,-63.5
1771538437.30692,27.00961813019736,-0.5102314925715378,-8.613341893639133,-0.8635149881108753,-1.3227700040051873,9.50845990840635,0.007745314615317813,0.0013731405259184018,-0.16798794050445423,31.720454743324602,16.20402923277714,-63.5
1771538437.3388357,27.00961813019736,-0.5102314925715378,-8.613341893639133,-0.8635149881108753,-1.3227700040051873,9.50845990840635,0.007745314615317813,0.0013731405259184018,-0.16798794050445423,31.720454743324602,16.20402923277714,-63.5
1771538437.3777385,27.00961813019736,-0.5102314925715378,-8.613341893639133,-0.8635149881108753,-1.3227700040051873,9.50845990840635,0.007745314615317813,0.0013731405259184018,-0.16798794050445423,31.720454743324602,16.20402923277714,-63.5
1771538437.3961039,26.350471383870794,-0.3819185705332049,-8.643419079125524,-0.8635597533147975,-1.3234762904901558,9.579222432102084,-0.0006865702629592008,0.003872657307658907,-0.16253378659197193,31.22656381205998,16.01084085834802,-63.0625
1771538437.448885,25.955672367837806,-0.3495421667821599,-8.659885372786556,-0.9034277325663865,-1.3065109997724496,9.582827648957258,0.02417418208374394,0.014425331079245724,-0.16689710972195776,31.22656381205998,16.01084085834802,-63.0625
1771538437.5331175,24.900555677250235,-0.3830162078528582,-8.673530641734786,-0.9498496912349244,-1.2928111293199103,9.604632618083963,-0.004556775718250606,0.02223662750373074,-0.15707963267948966,30.7470923935918,16.630024521627426,-63.5
1771538437.5572143,24.900555677250235,-0.3830162078528582,-8.673530641734786,-0.9498496912349244,-1.2928111293199103,9.604632618083963,-0.004556775718250606,0.02223662750373074,-0.15707963267948966,30.7470923935918,16.630024521627426,-63.5
1771538437.623733,24.900555677250235,-0.3830162078528582,-8.673530641734786,-0.9498496912349244,-1.2928111293199103,9.604632618083963,-0.004556775718250606,0.02223662750373074,-0.15707963267948966,30.7470923935918,16.630024521627426,-63.5
1771538437.6790257,23.685589028783482,-0.3462120796739958,-8.666229884795179,-0.9692949600272696,-1.3091399675608724,9.551910456872292,-0.0005619622017273008,0.0014366704827181024,-0.16580627893946132,31.022736404024336,17.259847218513357,-63.0625
1771538437.7288225,23.288053795096065,-0.3634560542256697,-8.659266762226187,-0.9157631059708365,-1.347927589487218,9.531200717463392,0.010183753292626118,0.020548289046181334,-0.16798794050445423,31.57752394249404,17.90394894740308,-63.0625
1771538437.7670665,22.952459989935655,-0.2856884813312878,-8.666952049030229,-0.945638610878598,-1.3231651857730884,9.580975739668785,0.009245515054835616,0.010242379544690818,-0.17998707911191522,31.57752394249404,17.90394894740308,-63.0625
1771538437.8019373,22.952459989935655,-0.2856884813312878,-8.666952049030229,-0.945638610878598,-1.3231651857730884,9.580975739668785,0.009245515054835616,0.010242379544690818,-0.17998707911191522,31.57752394249404,17.90394894740308,-63.0625
1771538437.8359642,22.952459989935655,-0.2856884813312878,-8.666952049030229,-0.945638610878598,-1.3231651857730884,9.580975739668785,0.009245515054835616,0.010242379544690818,-0.17998707911191522,31.57752394249404,17.90394894740308,-63.0625
1771538437.859456,22.952459989935655,-0.2856884813312878,-8.666952049030229,-0.945638610878598,-1.3231651857730884,9.580975739668785,0.009245515054835616,0.010242379544690818,-0.17998707911191522,31.57752394249404,17.90394894740308,-63.0625
1771538437.8929799,22.056898794307898,-0.33041530102302624,-8.647322707202912,-0.8607437826735332,-1.2758615406705613,9.563923785313253,0.008683552853108316,0.01167905002740892,-0.1439896632895322,30.149748720696014,19.006384508340588,-61.875
1771538437.9465148,21.498860812695195,-0.2706601215489522,-8.671722067927131,-0.8998304377130226,-1.2792295698892817,9.552575900172458,0.0069976662479264125,0.015989061475563227,-0.17562375598192942,29.64857779263685,17.86125233218435,-62.25
1771538437.9881346,21.03562881942608,-0.2954560531164984,-8.658418214732594,-0.7772038039437298,-1.2588883020324246,9.545024009375442,0.012993564301262623,0.013364936632590821,-0.1341721862470641,29.64857779263685,17.86125233218435,-62.25
1771538438.0133023,21.03562881942608,-0.2954560531164984,-8.658418214732594,-0.7772038039437298,-1.2588883020324246,9.545024009375442,0.012993564301262623,0.013364936632590821,-0.1341721862470641,29.64857779263685,17.86125233218435,-62.25
1771538438.0425568,20.657540373693603,-0.2901656157288394,-8.666477033481646,-0.8340830284196604,-1.2614229974438789,9.593520097727286,0.015116805046939926,0.010054241526659216,-0.1734420944169365,30.203365331106554,18.505354061074073,-62.25
1771538438.0824177,20.46975741835892,-0.30439667108436064,-8.666064074368686,-0.8106459961436093,-1.2899333727468998,9.625793702788634,0.008932768975572115,0.006807076377527311,-0.15271630954950383,30.203365331106554,18.505354061074073,-62.25
1771538438.108432,20.24432744320159,-0.23418052542134482,-8.675458884407643,-0.8502094816766944,-1.2847655015903092,9.64727142643717,0.01624072945039453,0.007180900561223012,-0.1712604328519436,30.203365331106554,18.505354061074073,-62.25
1771538438.160233,-61.39061213078535,5.149453531696039,5.626009683178968,-0.7299362918600912,-1.2292381209727254,9.659934074303761,0.012868956240030722,0.015800923457531625,-0.1407171709420428,29.573542634220626,18.780998071506612,-62.25
1771538438.2230957,19.81851842021654,-0.3042461884330412,-8.674400252167507,-0.7299362918600912,-1.2292381209727254,9.659934074303761,0.012868956240030722,0.015800923457531625,-0.1407171709420428,29.573542634220626,18.780998071506612,-62.25
1771538438.261037,19.359865955024986,-0.31945392701081377,-8.665528137058152,-0.686933658185395,-1.2192957799212567,9.663301238892911,0.007994530737781613,-0.0034988331239632063,-0.17562375598192942,29.423191355802878,18.43745841865974,-62.25
1771538438.2870114,19.359865955024986,-0.31945392701081377,-8.665528137058152,-0.686933658185395,-1.2192957799212567,9.663301238892911,0.007994530737781613,-0.0034988331239632063,-0.17562375598192942,29.423191355802878,18.43745841865974,-62.25
1771538438.3204083,19.410787279462937,-0.28692679109086844,-8.662040609624832,-0.7550454596893709,-1.2251169488250147,9.719063836630408,0.021550057240771536,0.008429433025909512,-0.16035212502697901,29.423191355802878,18.43745841865974,-62.25
1771538438.3657157,19.410787279462937,-0.28692679109086844,-8.662040609624832,-0.7550454596893709,-1.2251169488250147,9.719063836630408,0.021550057240771536,0.008429433025909512,-0.16035212502697901,29.423191355802878,18.43745841865974,-62.25
1771538438.389608,19.142067179638236,-0.2303165155831538,-8.646233614890418,-0.8017142809226455,-1.2320553477428589,9.75617322251568,0.020237994819285333,0.005431483999241409,-0.14508049407202864,28.804007692523466,17.957987000191558,-61.0625
1771538438.412214,18.97104961897025,-0.17390637003635537,-8.611313308570137,-0.7592244351898416,-1.2688610513010112,9.780869104283326,0.020426132837316934,0.01130277399134572,-0.14180800172453928,28.804007692523466,17.957987000191558,-61.0625
1771538438.4682705,18.97104961897025,-0.17390637003635537,-8.611313308570137,-0.7592244351898416,-1.2688610513010112,9.780869104283326,0.020426132837316934,0.01130277399134572,-0.14180800172453928,28.804007692523466,17.957987000191558,-61.0625
1771538438.5430605,19.23611550558992,-0.21758514040860702,-8.583752463426455,-0.6799831462372451,-1.1769047463861075,9.814029496265217,-0.004185403386922407,-0.004121873430122706,-0.1559888018969932,29.047172678965858,16.487093720796867,-59.75
1771538438.602244,19.38236260613369,-0.2404321456728714,-8.575042036409256,-0.6640226660918177,-1.0996147143918107,9.836097366703315,0.014239644913581623,-0.010994931616817218,-0.13199052468207118,29.047172678965858,16.487093720796867,-59.75
1771538438.643605,19.14814602104416,-0.26053715207362044,-8.567640060059485,-0.6963188469590429,-1.1462422947373767,9.850783287965605,0.0004373541404954008,0.0009993163422227017,-0.1189005552921137,28.342314823663703,17.682483470551666,-61.5
1771538438.6716163,19.192197383854207,-0.309490157555398,-8.588618004310595,-0.7798879109997355,-1.310768196122965,9.7969994820741,-0.018862402440999432,0.00587374184447181,-0.10471975511965978,28.342314823663703,17.682483470551666,-61.5
1771538438.6874146,19.192197383854207,-0.309490157555398,-8.588618004310595,-0.7798879109997355,-1.310768196122965,9.7969994820741,-0.018862402440999432,0.00587374184447181,-0.10471975511965978,28.342314823663703,17.682483470551666,-61.5
1771538438.7109904,19.192197383854207,-0.309490157555398,-8.588618004310595,-0.7885609529042765,-1.3130016842514587,9.707685172740671,0.008495414835076714,0.005807760035304609,-0.12435470920459599,28.202602578852474,16.583828388804076,-61.5
1771538438.747581,19.275167472161208,-0.3226097771525802,-8.558779366920682,-0.7885609529042765,-1.3130016842514587,9.707685172740671,0.008495414835076714,0.005807760035304609,-0.12435470920459599,28.202602578852474,16.583828388804076,-61.5
1771538438.7766604,19.31686510077421,-0.37544927754324425,-8.55082614790558,-0.7943327654075224,-1.3144880456512742,9.641557274170843,-0.007183352413590512,-0.002809811008636504,-0.14726215563702155,28.202602578852474,16.583828388804076,-61.5
1771538438.7915251,19.519784604671536,-0.3889328610086839,-8.554936568196142,-0.8288186025441691,-1.302065420648556,9.597549896369651,-0.0028733409654362048,-0.0011239244034546016,-0.11017390903214205,28.016553720425247,16.938147556050115,-61.5
1771538438.8586018,19.431283905450222,-0.4254148114665159,-8.536236914773774,-0.8305120288728438,-1.3286614166633863,9.681997276086438,0.019426816495094233,0.01174012813184112,-0.12217304763960307,28.016553720425247,16.938147556050115,-61.5
1771538438.872496,19.431283905450222,-0.4254148114665159,-8.536236914773774,-0.8305120288728438,-1.3286614166633863,9.681997276086438,0.019426816495094233,0.01174012813184112,-0.12217304763960307,28.016553720425247,16.938147556050115,-61.5
1771538438.9080005,19.431283905450222,-0.4254148114665159,-8.536236914773774,-0.8305120288728438,-1.3286614166633863,9.681997276086438,0.019426816495094233,0.01174012813184112,-0.12217304763960307,28.016553720425247,16.938147556050115,-61.5
1771538438.9548092,19.433100073512367,-0.451198771487567,-8.508924747524347,-0.862283745568872,-1.3329489730039632,9.761611845900154,0.0057466819308724095,0.0022478488069092033,-0.0818123086872342,29.222582503786562,16.88788998245155,-61.5
1771538439.2984085,20.370479735858016,-0.525130184234223,-8.381289884864522,-0.8336292696917198,-1.083103868702565,9.914624308927916,-0.006684920168662912,-0.01255375830839972,0.02945243112740431,28.97535607656896,14.608264663745597,-62.25
1771538439.5947292,20.381338238668942,-0.4605682655942124,-8.370837861185457,-0.778405582803797,-1.2629549451907964,9.720232975618003,-0.006308644132599711,-0.0008111783241911013,0.002181661564992912,29.451468458225165,15.696140231094022,-62.6875
1771538439.6125977,20.381338238668942,-0.4605682655942124,-8.370837861185457,-0.778405582803797,-1.2629549451907964,9.720232975618003,-0.006308644132599711,-0.0008111783241911013,0.002181661564992912,29.451468458225165,15.696140231094022,-62.6875
1771538439.6460218,20.384887686061777,-0.41990549285501816,-8.376990521709748,-0.7758859959860754,-1.2461320852438373,9.730190377793232,0.005060111667913209,0.006120506114568111,-0.007635815477475192,28.875262371749773,15.470753794260046,-62.25
1771538439.6639228,20.381993863402467,-0.3811075654932728,-8.36129526099419,-0.7742092391045107,-1.2349366598727949,9.736816917709374,-0.002311378763708904,-0.0025605948861727045,0.001090830782496456,28.875262371749773,15.470753794260046,-62.25
1771538439.68921,20.381993863402467,-0.3811075654932728,-8.36129526099419,-0.7742092391045107,-1.2349366598727949,9.736816917709374,-0.002311378763708904,-0.0025605948861727045,0.001090830782496456,28.875262371749773,15.470753794260046,-62.25
1771538439.7462802,21.392879902231247,-0.31368425163229724,-8.367071539755033,-0.7304440431961383,-1.1824455208267002,9.744161537396176,0.0033106951059316057,0.0021232407456773035,-0.007635815477475192,29.047172678965858,16.487093720796867,-61.875
1771538439.7898395,21.389176332908605,-0.2632360680771452,-8.361253112900531,-0.734197760148295,-1.1785727606742311,9.746114568357056,-0.002748732904204305,-0.0035599112283954057,0.00545415391248228,28.946938493354025,16.25806728556562,-61.5
1771538439.829634,21.691030638506472,-0.222828652136812,-8.36958467103935,-0.7336313408090788,-1.1773366602453836,9.747414288644736,-0.0028733409654362048,-0.0011239244034546016,-0.001090830782496456,28.946938493354025,16.25806728556562,-61.5
1771538439.8588197,21.691030638506472,-0.222828652136812,-8.36958467103935,-0.7336313408090788,-1.1773366602453836,9.747414288644736,-0.0028733409654362048,-0.0011239244034546016,-0.001090830782496456,28.946938493354025,16.25806728556562,-61.5
1771538439.8911285,22.15621690435345,-0.13638451111447417,-8.386248113075276,-0.7416835838694799,-1.1874307751835196,9.741589014562722,0.0011239244034546016,-0.0028733409654362048,-0.003272492347489368,29.276058633404457,15.29534396943934,-61.5
1771538439.9230304,22.641220569172777,-0.10727322732615842,-8.389401930398519,-0.7573895675481679,-1.2261342344983588,9.72433191290444,-0.0015612785439500026,0.0018740246232135031,0.00545415391248228,29.276058633404457,15.29534396943934,-61.5
1771538439.9518304,22.641220569172777,-0.10727322732615842,-8.389401930398519,-0.7573895675481679,-1.2261342344983588,9.72433191290444,-0.0015612785439500026,0.0018740246232135031,0.00545415391248228,29.276058633404457,15.29534396943934,-61.5
1771538439.9756815,22.753748421199752,-0.05942708876489688,-8.410845232989912,-0.770906200278112,-1.2505497761353601,9.712847504525309,0.00012460806123190007,-0.0024359868249408043,-0.002181661564992912,28.077309846837682,16.297545344765016,-61.5
1771538439.9906785,22.75193143293347,-0.03469747545918197,-8.41542571393296,-0.7707079402518768,-1.270821580928479,9.705204759038244,0.0011239244034546016,-0.0028733409654362048,-0.003272492347489368,28.077309846837682,16.297545344765016,-61.5
1771538440.0281827,23.20023731264384,-0.020160216330315048,-8.408043656865813,-0.7540997424694657,-1.2550086583673505,9.71684415582826,0.0004373541404954008,0.0009993163422227017,0.002181661564992912,28.077309846837682,16.297545344765016,-61.5
1771538440.053848,23.541488711749075,0.03543134491583773,-8.425464182798603,-0.7430471723709964,-1.2444853350448386,9.724590044371435,-0.0009993163422227017,0.0004373541404954008,-0.001090830782496456,29.276058633404457,15.29534396943934,-61.75
1771538440.0878587,23.541488711749075,0.03543134491583773,-8.425464182798603,-0.7430471723709964,-1.2444853350448386,9.724590044371435,-0.0009993163422227017,0.0004373541404954008,-0.001090830782496456,29.276058633404457,15.29534396943934,-61.75
1771538440.115658,23.720989142448186,0.07355230631227389,-8.429533729224692,-0.7475675949352051,-1.239587598431987,9.736435070084312,0.0028733409654362048,0.0011239244034546016,-0.002181661564992912,29.276058633404457,15.29534396943934,-61.75
1771538440.142962,23.720989142448186,0.07355230631227389,-8.429533729224692,-0.7475675949352051,-1.239587598431987,9.736435070084312,0.0028733409654362048,0.0011239244034546016,-0.002181661564992912,29.276058633404457,15.29534396943934,-61.75
1771538440.172259,24.08925222174015,0.10069566417434013,-8.429657632577245,-0.7505758856552572,-1.2363282094274373,9.737627578963986,-0.0011874543602543022,-0.005433935851608909,0.001090830782496456,28.646235936518526,15.570987979871878,-61.0625
1771538440.1881335,24.094267848099214,0.11956464904620975,-8.436558661513613,-0.7525778695246427,-1.23415912245467,9.738421180302213,-0.0003127460792635008,-0.003435303167163506,0.001090830782496456,28.646235936518526,15.570987979871878,-61.0625
1771538440.2073474,24.094267848099214,0.11956464904620975,-8.436558661513613,-0.7525778695246427,-1.23415912245467,9.738421180302213,-0.0003127460792635008,-0.003435303167163506,0.001090830782496456,28.646235936518526,15.570987979871878,-61.0625
1771538440.247769,24.176712074526748,0.15056488112674982,-8.44080439773113,-0.753528047769093,-1.240185749573859,9.738949313127694,0.0,0.0,-0.001090830782496456,28.646235936518526,15.570987979871878,-61.0625
1771538440.2702396,24.176712074526748,0.15056488112674982,-8.44080439773113,-0.753528047769093,-1.240185749573859,9.738949313127694,0.0,0.0,-0.001090830782496456,28.646235936518526,15.570987979871878,-61.0625
1771538440.2935054,24.311805870052513,0.19186560294178232,-8.442034842517273,-0.7541603807765882,-1.2441964025998433,9.735955667916103,0.0,0.0,0.001090830782496456,28.875262371749773,15.470753794260046,-60.6875
1771538440.3331993,24.510621319667543,0.2186683072201828,-8.451774322990484,-0.7545811913294538,-1.246865447386706,9.733963430468997,0.0008747082809908016,0.0019986326844454033,0.001090830782496456,28.875262371749773,15.470753794260046,-60.6875
1771538440.3913152,24.510621319667543,0.2186683072201828,-8.451774322990484,-0.7545811913294538,-1.246865447386706,9.733963430468997,0.0008747082809908016,0.0019986326844454033,0.001090830782496456,28.875262371749773,15.470753794260046,-60.6875
1771538440.422969,24.65207761357637,0.26044936939948204,-8.45257882064176,-0.7619492466638998,-1.2564939168034563,9.72260228358074,-0.0006865702629592008,0.003872657307658907,0.002181661564992912,28.875262371749773,15.470753794260046,-61.5
1771538440.4731226,24.734285954028376,0.29433740594659114,-8.462935575297898,-0.7699170812215133,-1.2615603774521977,9.711696455531612,-0.0005619622017273008,0.0014366704827181024,0.0,28.875262371749773,15.470753794260046,-61.5
1771538440.507508,24.810586065643072,0.3220559187375067,-8.460750580333976,-0.775219586113061,-1.2649320504178614,9.707783860498319,-0.0009993163422227017,0.0004373541404954008,0.001090830782496456,29.451468458225165,15.696140231094022,-61.0625
1771538440.524217,24.809893737744133,0.33127803370960757,-8.464251688403753,-0.7787483438855254,-1.2671758611124557,9.705180072210213,0.0009993163422227017,-0.0004373541404954008,0.001090830782496456,29.451468458225165,15.696140231094022,-61.0625
1771538440.562732,24.809893737744133,0.33127803370960757,-8.464251688403753,-0.7787483438855254,-1.2671758611124557,9.705180072210213,0.0009993163422227017,-0.0004373541404954008,0.001090830782496456,29.451468458225165,15.696140231094022,-61.0625
1771538440.5827909,24.808507399733912,0.3497219986104503,-8.471254196533318,-0.7753498603430724,-1.263881318177534,9.713482615312657,0.0018740246232135033,0.0015612785439500026,-0.001090830782496456,28.420849499684554,16.147194066347268,-61.5
1771538440.6025991,24.861158011334535,0.3600126930449488,-8.468156723124784,-0.7700237314700079,-1.2630300148478548,9.72235297670917,-0.0005619622017273008,0.0014366704827181024,0.001090830782496456,28.420849499684554,16.147194066347268,-61.5
1771538440.6293368,24.861158011334535,0.3600126930449488,-8.468156723124784,-0.7700237314700079,-1.2630300148478548,9.72235297670917,-0.0005619622017273008,0.0014366704827181024,0.001090830782496456,28.420849499684554,16.147194066347268,-61.5
1771538440.6473022,24.866129346224135,0.3789211044633025,-8.47491796348906,-0.7664792522017414,-1.2624634819916345,9.72825610313012,0.0,0.0,0.003272492347489368,28.646235936518526,15.570987979871878,-62.25
1771538440.6745722,24.96575703744452,0.3891915611714214,-8.48100656613926,-0.7654616190341929,-1.2651509367435172,9.72549434440638,-0.0014366704827181024,-0.0005619622017273008,-0.002181661564992912,28.646235936518526,15.570987979871878,-62.25
1771538440.7028646,24.96575703744452,0.3891915611714214,-8.48100656613926,-0.7654616190341929,-1.2651509367435172,9.72549434440638,-0.0014366704827181024,-0.0005619622017273008,-0.002181661564992912,28.646235936518526,15.570987979871878,-62.25
1771538440.7447524,25.086401511439256,0.41380118185763126,-8.481081047054143,-0.7678488715680074,-1.2655982296690036,9.723656424826597,0.0003127460792635008,0.003435303167163506,-0.001090830782496456,29.276058633404457,15.29534396943934,-62.25
1771538440.794537,25.094473856992977,0.4300827890691445,-8.48190820104926,-0.7680963832708477,-1.2628314220752148,9.72243330987716,0.0004373541404954008,0.0009993163422227017,-0.001090830782496456,29.276058633404457,15.29534396943934,-62.25
1771538440.8240921,25.123787631728188,0.45721458557766453,-8.485954732593328,-0.7686432192012016,-1.2535200122595378,9.721619340541396,0.0005619622017273008,-0.0014366704827181024,-0.002181661564992912,29.451468458225165,15.696140231094022,-60.5625
1771538440.8887084,25.122628900262857,0.47279933184962036,-8.486554090196236,-0.7716894887864048,-1.253452325120689,9.717732541333762,-0.0019986326844454033,0.0008747082809908016,0.001090830782496456,29.451468458225165,15.696140231094022,-60.5625
1771538440.9051101,25.122628900262857,0.47279933184962036,-8.486554090196236,-0.7716894887864048,-1.253452325120689,9.717732541333762,-0.0019986326844454033,0.0008747082809908016,0.001090830782496456,29.451468458225165,15.696140231094022,-60.5625
1771538440.941008,25.222495068755272,0.480211170686656,-8.486186725285092,-0.7706522711271857,-1.2547484582769552,9.715145919879472,0.0003127460792635008,0.003435303167163506,0.0,29.276058633404457,15.29534396943934,-62.5625
1771538440.9767935,25.25250824679572,0.4981142952470718,-8.486723656155279,-0.7668975383223452,-1.2569521986047494,9.710079440488778,-0.0008747082809908016,-0.0019986326844454033,0.001090830782496456,29.276058633404457,15.29534396943934,-62.5625
1771538441.0179808,25.251106408679767,0.5165839899400813,-8.493656868301828,-0.7674632816229482,-1.2570775849844489,9.713397978465194,-0.0014366704827181024,-0.0005619622017273008,0.001090830782496456,28.821645761339234,15.97178424152656,-61.0625
1771538441.0840147,25.287927000467317,0.5285979401730598,-8.496821908590018,-0.7678397774697328,-1.2571610282194812,9.715606428417999,-0.0008747082809908016,-0.0019986326844454033,-0.001090830782496456,28.821645761339234,15.97178424152656,-61.0625
1771538441.111447,25.2867664661267,0.5441832001333018,-8.497399664008084,-0.7682570719919549,-1.2572535137148535,9.714709083600482,-0.0008747082809908016,-0.0019986326844454033,-0.001090830782496456,28.875262371749773,15.470753794260046,-61.875
1771538441.1767206,25.332821858830773,0.5569019557618147,-8.500764054598594,-0.7653035600539766,-1.258619285015368,9.706443619117572,-0.0005619622017273008,0.0014366704827181024,0.002181661564992912,28.495884658100778,15.227448327025007,-61.875
1771538441.214073,25.332364297726222,0.5632505739241085,-8.497875518888645,-0.7664025068912529,-1.25818701236814,9.707633268250122,0.0,0.0,-0.002181661564992912,28.495884658100778,15.227448327025007,-61.875
1771538441.2576048,25.354756662940325,0.5585206498496363,-8.50048438088885,-0.7671338437354197,-1.2578993397502118,9.708424966458583,0.0009993163422227017,-0.0004373541404954008,0.001090830782496456,29.05067219657048,15.871550055914728,-61.5
1771538441.295865,25.354756662940325,0.5585206498496363,-8.50048438088885,-0.7676205402356449,-1.2577078968364943,9.718987167894422,0.0004373541404954008,0.0009993163422227017,-0.001090830782496456,29.05067219657048,15.871550055914728,-61.5
1771538441.3215065,25.354756662940325,0.5585206498496363,-8.50048438088885,-0.7676205402356449,-1.2577078968364943,9.718987167894422,0.0004373541404954008,0.0009993163422227017,-0.001090830782496456,29.05067219657048,15.871550055914728,-61.5
1771538441.3650358,25.363994865639185,0.5592241240439234,-8.500696076295359,-0.7710089073588993,-1.2562393155249176,9.719325971547814,0.0008747082809908016,0.0019986326844454033,0.0,29.05067219657048,15.871550055914728,-61.5
1771538441.3919992,25.363994865639185,0.5592241240439234,-8.500696076295359,-0.7710089073588993,-1.2562393155249176,9.719325971547814,0.0008747082809908016,0.0019986326844454033,0.0,29.05067219657048,15.871550055914728,-61.5
1771538441.4268386,25.363994865639185,0.5592241240439234,-8.500696076295359,-0.7701993517897735,-1.2566031692582467,9.719551441594461,0.0,0.0,0.0,29.67699537585179,16.211449710364327,-62.25
1771538441.4785874,25.423449101488146,0.5636220620512419,-8.500098998574535,-0.7696606016018486,-1.2568453098532646,9.71970148939184,0.0018740246232135033,0.0015612785439500026,-0.001090830782496456,29.67699537585179,16.211449710364327,-62.25
1771538441.50439,25.423449101488146,0.5636220620512419,-8.500098998574535,-0.7696606016018486,-1.2568453098532646,9.71970148939184,0.0018740246232135033,0.0015612785439500026,-0.001090830782496456,29.67699537585179,16.211449710364327,-62.25
1771538441.5493305,25.423449101488146,0.5636220620512419,-8.500098998574535,-0.7662375933309078,-1.2583476299054162,9.72649156793949,-0.002997949026668105,0.0013120624214862024,0.0,29.05067219657048,15.871550055914728,-61.5
1771538441.5742316,25.432689317138273,0.5643257810885458,-8.500309848028111,-0.7670240956032153,-1.2580062289270537,9.731010289362805,0.0004373541404954008,0.0009993163422227017,0.002181661564992912,29.05067219657048,15.871550055914728,-61.5
1771538441.5916207,25.432689317138273,0.5643257810885458,-8.500309848028111,-0.7670240956032153,-1.2580062289270537,9.731010289362805,0.0004373541404954008,0.0009993163422227017,0.002181661564992912,29.05067219657048,15.871550055914728,-61.5
1771538441.6217413,25.432689317138273,0.5643257810885458,-8.500309848028111,-0.7671653844226292,-1.2652491606589287,9.734017447992594,0.0009993163422227017,-0.0004373541404954008,0.0,29.175964928585273,16.157833099953788,-61.875
1771538441.652305,25.432689317138273,0.5643257810885458,-8.500309848028111,-0.7671653844226292,-1.2652491606589287,9.734017447992594,0.0009993163422227017,-0.0004373541404954008,0.0,29.175964928585273,16.157833099953788,-61.875
1771538441.699226,25.423449101488146,0.5636220620512419,-8.500098998574535,-0.7672594105536497,-1.2700692508176425,9.732673566761237,0.0004373541404954008,0.0009993163422227017,-0.001090830782496456,29.175964928585273,16.157833099953788,-61.875
1771538441.7418664,25.41710247883985,0.5631647515828532,-8.500345387005247,-0.764639627511393,-1.2671480148961103,9.728434117106586,-0.0005619622017273008,0.0014366704827181024,0.0,29.276199114197105,16.386859535185035,-61.0625
1771538441.7705872,25.41710247883985,0.5631647515828532,-8.500345387005247,-0.7659606672007758,-1.2638627868316188,9.722267699011853,-0.0014366704827181024,-0.0005619622017273008,0.001090830782496456,29.276199114197105,16.386859535185035,-61.0625
1771538441.805364,25.41710247883985,0.5631647515828532,-8.500345387005247,-0.76683980435708,-1.2616765042531017,9.714818904945892,-0.00012460806123190007,0.0024359868249408043,-0.001090830782496456,28.546142231699346,16.433477110386328,-61.5
1771538441.856881,25.41710247883985,0.5631647515828532,-8.500345387005247,-0.7674248603139948,-1.2602215576194753,9.709861815703476,0.0014366704827181024,0.0005619622017273008,-0.001090830782496456,28.546142231699346,16.433477110386328,-61.5
1771538441.9137244,25.41710247883985,0.5631647515828532,-8.500345387005247,-0.7667321372071035,-1.255544470802522,9.71774800222499,-0.0009993163422227017,0.0004373541404954008,0.0,30.02039454790601,14.969582866200884,-62.25
1771538441.9605803,25.41710247883985,0.5631647515828532,-8.500345387005247,-0.7667321372071035,-1.255544470802522,9.71774800222499,-0.0009993163422227017,0.0004373541404954008,0.0,30.02039454790601,14.969582866200884,-62.25
1771538441.9833095,25.41710247883985,0.5631647515828532,-8.500345387005247,-0.7673532090284064,-1.2561407578574164,9.711811097222556,0.0013120624214862024,0.002997949026668105,-0.001090830782496456,30.02039454790601,14.969582866200884,-62.25
1771538441.9995492,25.41710247883985,0.5631647515828532,-8.500345387005247,-0.7673532090284064,-1.2561407578574164,9.711811097222556,0.0013120624214862024,0.002997949026668105,-0.001090830782496456,30.02039454790601,14.969582866200884,-62.25
1771538442.0537899,25.41710247883985,0.5631647515828532,-8.500345387005247,-0.7677665253876567,-1.256537580231486,9.71120526497033,-0.0009993163422227017,0.0004373541404954008,0.0,29.46924700783358,14.80145303817472,-62.6875
1771538442.089614,25.41710247883985,0.5631647515828532,-8.500345387005247,-0.7680415828076914,-1.2568016610886328,9.710802090374063,-0.0005619622017273008,0.0014366704827181024,0.0,29.46924700783358,14.80145303817472,-62.6875
1771538442.117874,25.41710247883985,0.5631647515828532,-8.500345387005247,-0.7712891064872426,-1.2556362257580325,9.710533782184003,0.0,0.0,-0.001090830782496456,29.276058633404457,15.29534396943934,-63.0625
1771538442.1581447,25.41710247883985,0.5631647515828532,-8.500345387005247,-0.7734502972187673,-1.2548606415642836,9.710355226080717,-0.0004373541404954008,-0.0009993163422227017,0.001090830782496456,29.276058633404457,15.29534396943934,-63.0625
1771538442.2007365,25.41710247883985,0.5631647515828532,-8.500345387005247,-0.771824069469404,-1.2556856771382419,9.710236398988583,-0.0005619622017273008,0.0014366704827181024,0.0,28.724911093332025,15.127214141413175,-62.5625
1771538442.230481,25.41710247883985,0.5631647515828532,-8.500345387005247,-0.772083011259412,-1.2592992051355705,9.713502432593472,0.0013120624214862024,0.002997949026668105,0.0,28.724911093332025,15.127214141413175,-62.5625
1771538442.302684,25.41710247883985,0.5631647515828532,-8.500345387005247,-0.7753198101672037,-1.2603627894609852,9.71567594147354,-0.0008747082809908016,-0.0019986326844454033,0.0,29.451468458225165,15.696140231094022,-62.25
1771538442.3356886,25.41710247883985,0.5631647515828532,-8.500345387005247,-0.7774738636829263,-1.261070592948533,9.71712238735354,0.0014366704827181024,0.0005619622017273008,0.001090830782496456,29.451468458225165,15.696140231094022,-62.25
1771538442.3731115,25.41710247883985,0.5631647515828532,-8.500345387005247,-0.7774738636829263,-1.261070592948533,9.71712238735354,0.0014366704827181024,0.0005619622017273008,0.001090830782496456,29.451468458225165,15.696140231094022,-62.25
1771538442.4300315,25.41710247883985,0.5631647515828532,-8.500345387005247,-0.7789073622352851,-1.2615416282628134,9.71808498092882,0.0005619622017273008,-0.0014366704827181024,-0.001090830782496456,28.724911093332025,15.127214141413175,-61.75
1771538442.469593,25.41710247883985,0.5631647515828532,-8.500345387005247,-0.7785201613175968,-1.2587906209635469,9.718725576200296,0.0005619622017273008,-0.0014366704827181024,0.0,28.724911093332025,15.127214141413175,-61.75
1771538442.5058987,25.41710247883985,0.5631647515828532,-8.500345387005247,-0.7785201613175968,-1.2587906209635469,9.718725576200296,0.0005619622017273008,-0.0014366704827181024,0.0,28.724911093332025,15.127214141413175,-61.75
1771538442.54605,25.41710247883985,0.5631647515828532,-8.500345387005247,-0.7765391855841373,-1.2613655105668158,9.719151885197544,0.0009993163422227017,-0.0004373541404954008,0.0,29.451468458225165,15.696140231094022,-61.5
1771538442.576531,25.41710247883985,0.5631647515828532,-8.500345387005247,-0.7756029880194695,-1.2556089405651134,9.722780700780348,0.0,0.0,0.001090830782496456,29.451468458225165,15.696140231094022,-61.5
1771538442.6169806,25.41710247883985,0.5631647515828532,-8.500345387005247,-0.7745978393411945,-1.2592481378033573,9.725195637014178,0.0009993163422227017,-0.0004373541404954008,0.0,27.615616977977915,16.022041815125124,-62.25
1771538442.6331625,25.41710247883985,0.5631647515828532,-8.500345387005247,-0.773928924124049,-1.2616699829129117,9.723457638393867,0.0,0.0,0.0,27.615616977977915,16.022041815125124,-62.25
1771538442.693555,25.41710247883985,0.5631647515828532,-8.500345387005247,-0.7734837685193111,-1.2632816937795377,9.718955908019447,-0.0009993163422227017,0.0004373541404954008,-0.001090830782496456,29.05067219657048,15.871550055914728,-61.5
1771538442.7309842,25.41710247883985,0.5631647515828532,-8.500345387005247,-0.7734837685193111,-1.2632816937795377,9.718955908019447,-0.0009993163422227017,0.0004373541404954008,-0.001090830782496456,29.05067219657048,15.871550055914728,-61.5
1771538442.7821703,25.41710247883985,0.5631647515828532,-8.500345387005247,-0.7731875224370721,-1.2643542693572873,9.715960056742896,-0.0009993163422227017,0.0004373541404954008,-0.001090830782496456,29.05067219657048,15.871550055914728,-61.5
1771538442.811975,25.41710247883985,0.5631647515828532,-8.500345387005247,-0.7729903739786276,-1.2650680564228254,9.713966351184201,-0.0014366704827181024,-0.0005619622017273008,-0.001090830782496456,29.05067219657048,15.871550055914728,-62.5625
1771538442.8653176,25.41710247883985,0.5631647515828532,-8.500345387005247,-0.7745824717298809,-1.261137419511251,9.71598467411336,0.0008747082809908016,0.0019986326844454033,0.0,29.05067219657048,15.871550055914728,-62.5625
1771538442.8856285,25.41710247883985,0.5631647515828532,-8.500345387005247,-0.7745824717298809,-1.261137419511251,9.71598467411336,0.0008747082809908016,0.0019986326844454033,0.0,29.05067219657048,15.871550055914728,-62.5625
1771538442.9037983,25.41710247883985,0.5631647515828532,-8.500345387005247,-0.7756419949984429,-1.25852162455469,9.72067295718389,0.0,0.0,0.001090830782496456,28.077309846837682,16.297545344765016,-61.5
1771538442.940325,25.41710247883985,0.5631647515828532,-8.500345387005247,-0.7776882740890755,-1.2598453182705533,9.720447845488454,-0.0008747082809908016,-0.0019986326844454033,-0.002181661564992912,28.077309846837682,16.297545344765016,-61.5
1771538442.9582329,25.41710247883985,0.5631647515828532,-8.500345387005247,-0.7776882740890755,-1.2598453182705533,9.720447845488454,-0.0008747082809908016,-0.0019986326844454033,-0.002181661564992912,28.077309846837682,16.297545344765016,-61.5
1771538442.972329,25.41710247883985,0.5631647515828532,-8.500345387005247,-0.7776882740890755,-1.2598453182705533,9.720447845488454,-0.0008747082809908016,-0.0019986326844454033,-0.002181661564992912,28.077309846837682,16.297545344765016,-61.5
1771538442.9879587,25.41710247883985,0.5631647515828532,-8.500345387005247,-0.7759855739263456,-1.2620673998428877,9.720298036169805,-0.0008747082809908016,-0.0019986326844454033,-0.001090830782496456,28.646235936518526,15.570987979871878,-60.25
1771538443.0107694,25.41710247883985,0.5631647515828532,-8.500345387005247,-0.7759855739263456,-1.2620673998428877,9.720298036169805,-0.0008747082809908016,-0.0019986326844454033,-0.001090830782496456,28.646235936518526,15.570987979871878,-60.25
1771538443.068912,25.41710247883985,0.5631647515828532,-8.500345387005247,-0.7735112677974009,-1.260481694267888,9.720198339741723,-0.0005619622017273008,0.0014366704827181024,0.001090830782496456,28.646235936518526,15.570987979871878,-60.25
1771538443.087519,25.41710247883985,0.5631647515828532,-8.500345387005247,-0.7718646447083988,-1.259426424921218,9.713441769467877,-0.0018740246232135033,-0.0015612785439500026,0.0,27.94473711802835,15.059318498998843,-62.6875
1771538443.1070316,25.41710247883985,0.5631647515828532,-8.500345387005247,-0.7718646447083988,-1.259426424921218,9.713441769467877,-0.0018740246232135033,-0.0015612785439500026,0.0,27.94473711802835,15.059318498998843,-62.6875
1771538443.1625197,25.41710247883985,0.5631647515828532,-8.500345387005247,-0.7738333114757635,-1.2573829767680844,9.715635570841108,-0.0004373541404954008,-0.0009993163422227017,0.001090830782496456,27.94473711802835,15.059318498998843,-62.6875
1771538443.1924202,25.41710247883985,0.5631647515828532,-8.500345387005247,-0.7738333114757635,-1.2573829767680844,9.715635570841108,-0.0004373541404954008,-0.0009993163422227017,0.001090830782496456,27.94473711802835,15.059318498998843,-62.6875
1771538443.207425,25.41710247883985,0.5631647515828532,-8.500345387005247,-0.7751434372179961,-1.2560230848489857,9.720440632855945,0.00012460806123190007,-0.0024359868249408043,-0.001090830782496456,28.946938493354025,16.25806728556562,-61.75
1771538443.2324495,25.41710247883985,0.5631647515828532,-8.500345387005247,-0.7751434372179961,-1.2560230848489857,9.720440632855945,0.00012460806123190007,-0.0024359868249408043,-0.001090830782496456,28.946938493354025,16.25806728556562,-61.75
1771538443.263508,25.41710247883985,0.5631647515828532,-8.500345387005247,-0.7729508352252776,-1.2564592701588688,9.723638347950759,0.0014366704827181024,0.0005619622017273008,0.0,28.946938493354025,16.25806728556562,-61.75
1771538443.3095899,25.41710247883985,0.5631647515828532,-8.500345387005247,-0.7728328612831478,-1.2598140226491976,9.712385944796262,0.0,0.0,-0.002181661564992912,29.795008111072036,15.545788952676274,-62.25
1771538443.348963,25.41710247883985,0.5631647515828532,-8.500345387005247,-0.7727543509425157,-1.2620465729564707,9.704897596194524,-0.003435303167163506,0.00031274607926350074,-0.001090830782496456,29.795008111072036,15.545788952676274,-62.25
1771538443.3800752,25.41710247883985,0.5631647515828532,-8.500345387005247,-0.7696376271487323,-1.2648734884377948,9.70994951897236,-0.0014366704827181024,-0.0005619622017273008,0.0,29.175964928585273,16.157833099953788,-62.5625
1771538443.410551,25.41710247883985,0.5631647515828532,-8.500345387005247,-0.7662223040890004,-1.2636902930727905,9.713311517147336,0.0005619622017273008,-0.0014366704827181024,-0.001090830782496456,29.175964928585273,16.157833099953788,-62.5625
1771538443.4424145,25.41710247883985,0.5631647515828532,-8.500345387005247,-0.7639494447444072,-1.2629028897745382,9.715548889376802,-0.002311378763708904,-0.0025605948861727045,0.0,29.46924700783358,14.80145303817472,-63.0625
1771538443.4574387,25.41710247883985,0.5631647515828532,-8.500345387005247,-0.7639494447444072,-1.2629028897745382,9.715548889376802,-0.002311378763708904,-0.0025605948861727045,0.0,29.46924700783358,14.80145303817472,-63.0625
1771538443.4970376,25.41710247883985,0.5631647515828532,-8.500345387005247,-0.7655013582791935,-1.2610377034843674,9.717037835602426,-0.00012460806123190007,0.0024359868249408043,0.0,29.46924700783358,14.80145303817472,-63.0625
1771538443.5237563,25.41710247883985,0.5631647515828532,-8.500345387005247,-0.7692164957826939,-1.2659253949219762,9.71468360097564,-0.0014366704827181024,-0.0005619622017273008,0.002181661564992912,28.245439674863846,15.746397804692586,-61.75
1771538443.550957,25.41710247883985,0.5631647515828532,-8.500345387005247,-0.7716888782904682,-1.269178098974614,9.713116884130038,-0.0005619622017273008,0.0014366704827181024,0.001090830782496456,28.245439674863846,15.746397804692586,-61.75
1771538443.622666,25.41710247883985,0.5631647515828532,-8.500345387005247,-0.7702697451919591,-1.2726839153776144,9.718764474985303,-0.0014366704827181024,-0.0005619622017273008,-0.001090830782496456,28.821645761339234,15.97178424152656,-62.25
1771538443.6845603,25.41710247883985,0.5631647515828532,-8.500345387005247,-0.7666429715855465,-1.2688880449530544,9.722522883611758,0.0004373541404954008,0.0009993163422227017,0.0,28.821645761339234,15.97178424152656,-62.25
1771538443.7192917,25.41710247883985,0.5631647515828532,-8.500345387005247,-0.7642293942641948,-1.266361935588161,9.721678950861168,0.0,0.0,0.001090830782496456,28.646235936518526,15.570987979871878,-62.25
1771538443.7536402,25.41710247883985,0.5631647515828532,-8.500345387005247,-0.7626231855182605,-1.2646808380243149,9.717772211335678,-0.0004373541404954008,-0.0009993163422227017,0.0,28.646235936518526,15.570987979871878,-62.25
1771538443.805866,25.41710247883985,0.5631647515828532,-8.500345387005247,-0.7615542715403685,-1.2635620863746653,9.715172319822605,-0.0008747082809908016,-0.0019986326844454033,0.0,29.451468458225165,15.696140231094022,-62.25
1771538443.8568454,25.41710247883985,0.5631647515828532,-8.500345387005247,-0.760842921228633,-1.2628175696490984,9.713442121063345,-0.0008747082809908016,-0.0019986326844454033,0.0,29.451468458225165,15.696140231094022,-62.25
1771538443.8711889,25.41710247883985,0.5631647515828532,-8.500345387005247,-0.760842921228633,-1.2628175696490984,9.713442121063345,-0.0008747082809908016,-0.0019986326844454033,0.0,29.451468458225165,15.696140231094022,-62.25
1771538443.8967063,25.41710247883985,0.5631647515828532,-8.500345387005247,-0.760842921228633,-1.2628175696490984,9.713442121063345,-0.0008747082809908016,-0.0019986326844454033,0.0,29.451468458225165,15.696140231094022,-62.25
1771538443.9331932,25.41710247883985,0.5631647515828532,-8.500345387005247,-0.7603695255424765,-1.2623221020850306,9.712290693116644,0.0005619622017273008,-0.0014366704827181024,0.001090830782496456,29.67699537585179,16.211449710364327,-62.25
1771538443.9986382,25.41710247883985,0.5631647515828532,-8.500345387005247,-0.7600544860015157,-1.2619923739558787,9.714869542387728,0.0019986326844454033,-0.0008747082809908016,-0.002181661564992912,29.67699537585179,16.211449710364327,-62.25
1771538444.0297036,25.41710247883985,0.5631647515828532,-8.500345387005247,-0.7659737827844499,-1.2590905871871225,9.71658573777,0.00012460806123190007,-0.0024359868249408043,0.001090830782496456,28.495884658100778,15.227448327025007,-62.25
1771538444.0434084,25.41710247883985,0.5631647515828532,-8.500345387005247,-0.7699130086706151,-1.2571594805075974,9.717727846625744,-0.0018740246232135033,-0.0015612785439500026,-0.001090830782496456,28.495884658100778,15.227448327025007,-62.25
1771538444.0946496,25.41710247883985,0.5631647515828532,-8.500345387005247,-0.7699130086706151,-1.2571594805075974,9.717727846625744,-0.0018740246232135033,-0.0015612785439500026,-0.001090830782496456,28.495884658100778,15.227448327025007,-62.25
1771538444.1290975,25.41710247883985,0.5631647515828532,-8.500345387005247,-0.7694700434547108,-1.2572155287753035,9.715142795603729,-0.0004373541404954008,-0.0009993163422227017,0.0,28.821645761339234,15.97178424152656,-62.25
1771538444.148562,25.41710247883985,0.5631647515828532,-8.500345387005247,-0.7691752550517723,-1.257252828271362,9.71342247302549,-0.0014366704827181024,-0.0005619622017273008,0.001090830782496456,28.821645761339234,15.97178424152656,-62.25
1771538444.1698267,25.41710247883985,0.5631647515828532,-8.500345387005247,-0.7720435527017295,-1.255936472478271,9.712277617566935,-0.0014366704827181024,-0.0005619622017273008,0.001090830782496456,28.821645761339234,15.97178424152656,-62.25
1771538444.201533,25.41710247883985,0.5631647515828532,-8.500345387005247,-0.773952372746792,-1.2550604524026268,9.71151572904814,-0.0004373541404954008,-0.0009993163422227017,0.001090830782496456,28.646235936518526,15.570987979871878,-62.5625
1771538444.2897115,25.41710247883985,0.5631647515828532,-8.500345387005247,-0.7734993733158083,-1.2588831250582364,9.711008700749733,0.0009993163422227017,-0.0004373541404954008,0.001090830782496456,28.646235936518526,15.570987979871878,-62.5625
1771538444.3433313,25.41710247883985,0.5631647515828532,-8.500345387005247,-0.7687922530246583,-1.2597037731604377,9.714016390788341,0.0,0.0,-0.002181661564992912,29.276058633404457,15.29534396943934,-61.75
1771538444.3699248,25.41710247883985,0.5631647515828532,-8.500345387005247,-0.7656597170528768,-1.2602499053052127,9.719363086618255,0.0008747082809908016,0.0019986326844454033,-0.001090830782496456,29.276058633404457,15.29534396943934,-61.75
1771538444.3926675,25.41710247883985,0.5631647515828532,-8.500345387005247,-0.7656597170528768,-1.2602499053052127,9.719363086618255,0.0008747082809908016,0.0019986326844454033,-0.001090830782496456,29.276058633404457,15.29534396943934,-61.75
1771538444.429124,25.41710247883985,0.5631647515828532,-8.500345387005247,-0.7666395253954866,-1.2592721719558098,9.722921252966557,0.0004373541404954008,0.0009993163422227017,-0.001090830782496456,29.05067219657048,15.871550055914728,-62.25
1771538444.454367,25.41710247883985,0.5631647515828532,-8.500345387005247,-0.7666395253954866,-1.2592721719558098,9.722921252966557,0.0004373541404954008,0.0009993163422227017,-0.001090830782496456,29.05067219657048,15.871550055914728,-62.25
1771538444.475591,25.382961926326402,0.9330321684293905,-9.31241527168507,-0.7672915769023171,-1.2586215013337791,9.725289172924029,0.0017494165619816031,0.003997265368890807,-0.001090830782496456,29.05067219657048,15.871550055914728,-62.25
1771538444.4940636,25.382961926326402,0.9330321684293905,-9.31241527168507,-0.7672915769023171,-1.2586215013337791,9.725289172924029,0.0017494165619816031,0.003997265368890807,-0.001090830782496456,29.05067219657048,15.871550055914728,-62.25
1771538444.5604532,25.41710247883985,0.5631647515828532,-8.500345387005247,-0.7680142874563135,-1.2579003213030744,9.722342444478562,-0.0009993163422227017,0.0004373541404954008,0.0,28.875262371749773,15.470753794260046,-61.0625
1771538444.5804462,25.41710247883985,0.5631647515828532,-8.500345387005247,-0.7668652875056439,-1.254644074009849,9.724903982340983,0.0,0.0,0.002181661564992912,28.875262371749773,15.470753794260046,-61.0625
1771538444.616712,25.41710247883985,0.5631647515828532,-8.500345387005247,-0.763036164834533,-1.2538182560019282,9.726608657174172,0.0013120624214862024,0.002997949026668105,-0.003272492347489368,29.276058633404457,15.29534396943934,-62.5625
1771538444.657735,25.41710247883985,0.5631647515828532,-8.500345387005247,-0.7618291046620665,-1.256333159381759,9.727743099233193,0.0,0.0,-0.001090830782496456,29.276058633404457,15.29534396943934,-62.5625
1771538444.6876762,25.41710247883985,0.5631647515828532,-8.500345387005247,-0.7610258196010359,-1.258006799487725,9.721807834336285,0.0005619622017273008,-0.0014366704827181024,0.0,28.646235936518526,15.570987979871878,-61.75
1771538444.7175386,25.41710247883985,0.5631647515828532,-8.500345387005247,-0.7618324205572571,-1.262185064321571,9.717857981848645,0.0,0.0,0.001090830782496456,28.646235936518526,15.570987979871878,-61.75
1771538444.7555254,25.41710247883985,0.5631647515828532,-8.500345387005247,-0.7654336805224099,-1.2636244747031642,9.721919622555504,0.0004373541404954008,0.0009993163422227017,0.001090830782496456,28.077309846837682,16.297545344765016,-61.875
1771538444.7725456,25.41710247883985,0.5631647515828532,-8.500345387005247,-0.7654336805224099,-1.2636244747031642,9.721919622555504,0.0004373541404954008,0.0009993163422227017,0.001090830782496456,28.077309846837682,16.297545344765016,-61.875
1771538444.800521,25.41710247883985,0.5631647515828532,-8.500345387005247,-0.7664891006094543,-1.2615179101937362,9.724622599074419,0.0009993163422227017,-0.0004373541404954008,-0.001090830782496456,28.077309846837682,16.297545344765016,-61.875
1771538444.8302908,25.41710247883985,0.5631647515828532,-8.500345387005247,-0.7664891006094543,-1.2615179101937362,9.724622599074419,0.0009993163422227017,-0.0004373541404954008,-0.001090830782496456,28.077309846837682,16.297545344765016,-61.875
1771538444.8837748,25.41710247883985,0.5631647515828532,-8.500345387005247,-0.7671914708875676,-1.2601160150445792,9.719731176338891,0.0013120624214862024,0.002997949026668105,-0.001090830782496456,28.821645761339234,15.97178424152656,-61.5
1771538444.9256847,25.41710247883985,0.5631647515828532,-8.500345387005247,-0.7645944144225512,-1.2605242476740655,9.71647598914917,0.0009993163422227017,-0.0004373541404954008,0.0,28.821645761339234,15.97178424152656,-61.5
1771538444.9501143,25.41710247883985,0.5631647515828532,-8.500345387005247,-0.7645944144225512,-1.2605242476740655,9.71647598914917,0.0009993163422227017,-0.0004373541404954008,0.0,28.821645761339234,15.97178424152656,-61.5
1771538444.9714808,25.41710247883985,0.5631647515828532,-8.500345387005247,-0.7628661023561043,-1.2607959219287312,9.717654810144554,-0.0009993163422227017,0.0004373541404954008,0.001090830782496456,29.795008111072036,15.545788952676274,-62.25
1771538444.9970977,25.41710247883985,0.5631647515828532,-8.500345387005247,-0.7617159299823947,-1.260976718110411,9.718439302348688,0.0008747082809908016,0.0019986326844454033,-0.002181661564992912,29.795008111072036,15.545788952676274,-62.25
1771538445.0270827,25.41710247883985,0.5631647515828532,-8.500345387005247,-0.7617159299823947,-1.260976718110411,9.718439302348688,0.0008747082809908016,0.0019986326844454033,-0.002181661564992912,29.795008111072036,15.545788952676274,-62.25
1771538445.058491,25.41710247883985,0.5631647515828532,-8.500345387005247,-0.7622916813070133,-1.2641615119888037,9.718961373147188,0.0005619622017273008,-0.0014366704827181024,-0.001090830782496456,28.821645761339234,15.97178424152656,-63.0625
1771538445.0984235,25.41710247883985,0.5631647515828532,-8.500345387005247,-0.7657393134210939,-1.2649397785473404,9.719308805431677,0.0018740246232135033,0.0015612785439500026,0.0,28.821645761339234,15.97178424152656,-63.0625
1771538445.1445808,25.41710247883985,0.5631647515828532,-8.500345387005247,-0.7680336740804404,-1.2654577062482393,9.726230241150569,0.002186770702477004,0.004996581711113508,-0.002181661564992912,28.875262371749773,15.470753794260046,-62.25
1771538445.1855717,25.41710247883985,0.5631647515828532,-8.500345387005247,-0.7695605454695477,-1.2658023813475563,9.73083637930399,0.0,0.0,-0.001090830782496456,28.875262371749773,15.470753794260046,-62.25
1771538445.2348375,25.41710247883985,0.5631647515828532,-8.500345387005247,-0.7722999591707831,-1.261626104545713,9.727211489376517,0.0008747082809908016,0.0019986326844454033,0.002181661564992912,28.875262371749773,15.470753794260046,-61.5
1771538445.2927103,25.41710247883985,0.5631647515828532,-8.500345387005247,-0.7722999591707831,-1.261626104545713,9.727211489376517,0.0008747082809908016,0.0019986326844454033,0.002181661564992912,28.875262371749773,15.470753794260046,-61.5
1771538445.336223,25.41710247883985,0.5631647515828532,-8.500345387005247,-0.7693352345005329,-1.2645936714073753,9.721454053915139,-0.0005619622017273008,0.0014366704827181024,0.0,28.875262371749773,15.470753794260046,-61.5
1771538445.3869135,25.41710247883985,0.5631647515828532,-8.500345387005247,-0.7690855411986816,-1.2621628997737522,9.717622544930359,-0.0004373541404954008,-0.0009993163422227017,0.002181661564992912,28.875262371749773,15.470753794260046,-61.5
1771538445.4270723,25.41710247883985,0.5631647515828532,-8.500345387005247,-0.7689193730955565,-1.2605452484050743,9.715072718501748,0.0,0.0,-0.001090830782496456,28.875262371749773,15.470753794260046,-61.5
1771538445.4820092,25.41710247883985,0.5631647515828532,-8.500345387005247,-0.768808790079146,-1.2594687194895688,9.716720949204253,-0.0014366704827181024,-0.0005619622017273008,-0.001090830782496456,29.576761190239957,15.982423275133081,-60.5625
1771538445.5125973,25.41710247883985,0.5631647515828532,-8.500345387005247,-0.7717996743561288,-1.2574111233308611,9.717817828324828,-0.0008747082809908016,-0.0019986326844454033,-0.001090830782496456,29.576761190239957,15.982423275133081,-60.5625
1771538445.5332458,25.41710247883985,0.5631647515828532,-8.500345387005247,-0.7707255983929837,-1.2573829942631511,9.718547789126628,-0.0005619622017273008,0.0014366704827181024,0.001090830782496456,29.276058633404457,15.29534396943934,-61.0625
1771538445.5622885,25.41710247883985,0.5631647515828532,-8.500345387005247,-0.7747985867248914,-1.2516174422615916,9.71903356988603,-0.0013120624214862024,-0.002997949026668105,0.001090830782496456,29.276058633404457,15.29534396943934,-61.0625
1771538445.6199465,25.41710247883985,0.5631647515828532,-8.500345387005247,-0.7747985867248914,-1.2516174422615916,9.71903356988603,-0.0013120624214862024,-0.002997949026668105,0.001090830782496456,29.276058633404457,15.29534396943934,-61.0625
1771538445.653903,25.41710247883985,0.5631647515828532,-8.500345387005247,-0.7683156868441833,-1.2518040663831547,9.719356851554885,0.0014366704827181024,0.0005619622017273008,0.0,29.05067219657048,15.871550055914728,-61.5
1771538445.700929,25.41710247883985,0.5631647515828532,-8.500345387005247,-0.7684070436224745,-1.2536515604993825,9.716226880186895,-0.0013120624214862024,-0.002997949026668105,-0.001090830782496456,29.05067219657048,15.871550055914728,-61.5
1771538445.7235887,25.41710247883985,0.5631647515828532,-8.500345387005247,-0.7684678405379052,-1.2548810471958707,9.714143919205569,-0.0008747082809908016,-0.0019986326844454033,0.0,29.61959828625133,15.144992691021592,-62.5625
1771538445.7546694,25.41710247883985,0.5631647515828532,-8.500345387005247,-0.7685083002059782,-1.2556992568581171,9.712757731940696,-0.0009993163422227017,0.0004373541404954008,-0.001090830782496456,29.61959828625133,15.144992691021592,-62.5625
1771538445.7933483,25.41710247883985,0.5631647515828532,-8.500345387005247,-0.7685083002059782,-1.2556992568581171,9.712757731940696,-0.0009993163422227017,0.0004373541404954008,-0.001090830782496456,29.61959828625133,15.144992691021592,-62.5625
1771538445.8198647,25.41710247883985,0.5631647515828532,-8.500345387005247,-0.7685352256631168,-1.2562437662483414,9.71183523980065,-0.0014366704827181024,-0.0005619622017273008,0.001090830782496456,28.875262371749773,15.470753794260046,-62.5625
1771538445.8549998,25.41710247883985,0.5631647515828532,-8.500345387005247,-0.7654886682149546,-1.2579473093560223,9.707876219879042,0.0,0.0,-0.14180800172453928,28.875262371749773,15.470753794260046,-62.5625
1771538445.8975167,25.41710247883985,0.5631647515828532,-8.500345387005247,-0.7654886682149546,-1.2579473093560223,9.707876219879042,0.0,0.0,-0.14180800172453928,28.875262371749773,15.470753794260046,-62.5625
1771538445.934481,25.41710247883985,0.5631647515828532,-8.500345387005247,-0.7634612182654795,-1.2590809982643607,9.705241536346362,0.0009993163422227017,-0.0004373541404954008,-0.001090830782496456,28.875262371749773,15.470753794260046,-62.5625
1771538445.9749665,25.41710247883985,0.5631647515828532,-8.500345387005247,-0.7621119729722036,-1.2598354555687248,9.706833295594025,-0.0009993163422227017,0.0004373541404954008,0.0,28.875262371749773,15.470753794260046,-62.5625
1771538446.00351,25.41710247883985,0.5631647515828532,-8.500345387005247,-0.761214065301586,-1.2603375384769389,9.711237705299549,-0.0003127460792635008,-0.003435303167163506,0.0,28.875262371749773,15.470753794260046,-61.75
