timestamp,yaw,pitch,roll,ax,ay,az,gx,gy,gz,mx,my,mz
1771535071.8485427,65.671341178477,1.8081598377092352,-9.111155825210387,-0.30541115205796937,-1.5593987839876087,9.719524787021614,-0.002181661564992912,0.0,0.001090830782496456,25.875,19.5,-60.5625
1771535072.4464746,65.91383933363016,1.806055946860862,-9.112776314209281,-0.28843737582280937,-1.5518434643694605,9.739087898713505,-0.001090830782496456,0.0,0.003272492347489368,24.75,20.5625,-61.75
1771535072.8205636,65.79615850394501,1.8122963009470485,-9.112863339027385,-0.3263046530900135,-1.5647782971259452,9.742406958668676,0.0,0.0,0.0,24.375,20.1875,-61.75
1771535072.840886,65.79615850394501,1.8122963009470485,-9.112863339027385,-0.32419567620381434,-1.5665250150675596,9.738256692399194,0.0,0.001090830782496456,-0.002181661564992912,24.375,20.1875,-61.75
1771535072.8589182,65.79615850394501,1.8122963009470485,-9.112863339027385,-0.3127568405229061,-1.5676874363455862,9.742184959973004,-0.001090830782496456,0.001090830782496456,0.0,24.375,20.1875,-61.75
1771535072.8942719,65.79615850394501,1.8122963009470485,-9.112863339027385,-0.3127568405229061,-1.5676874363455862,9.742184959973004,-0.001090830782496456,0.001090830782496456,0.0,24.375,20.1875,-61.75
1771535072.9269493,65.79615850394501,1.8122963009470485,-9.112863339027385,-0.30676866785161616,-1.5689758224884283,9.740967664982438,0.0,0.0,-0.003272492347489368,25.0625,19.5,-61.5
1771535072.9779727,65.79615850394501,1.8122963009470485,-9.112863339027385,-0.3078495845515958,-1.5693184213068614,9.740643970236286,-0.001090830782496456,0.001090830782496456,-0.001090830782496456,24.75,19.5,-61.5
1771535073.0347302,65.79615850394501,1.8122963009470485,-9.112863339027385,-0.3090476339370861,-1.573043257283314,9.74140417579776,0.0,0.0,0.0,24.0,19.5,-61.0625
1771535073.0760586,65.79615850394501,1.8122963009470485,-9.112863339027385,-0.3127113227310762,-1.5720252537266342,9.737589351600418,0.0,0.0,0.002181661564992912,24.0,19.5,-61.0625
1771535073.1193113,0.0012267380793089923,1.8123388360066834,-9.11307635518165,-1.5631716211826332,-0.3431242839214193,9.740039540409885,0.00034673139914131996,-0.003432039524432639,-0.003272492347489368,27.7791708602881,-14.237566200545675,-60.25
1771535073.145959,0.0012267380793089923,1.8123388360066834,-9.11307635518165,-1.548843786625217,-0.3615916832856641,9.733336090286445,0.0014421620896013193,-0.0005477153452299997,0.0,27.7791708602881,-14.237566200545675,-60.25
1771535073.178245,0.0012267380793089923,1.8123388360066834,-9.11307635518165,-1.548843786625217,-0.3615916832856641,9.733336090286445,0.0014421620896013193,-0.0005477153452299997,0.0,27.7791708602881,-14.237566200545675,-60.25
1771535073.220999,0.0012267380793089923,1.8123388360066834,-9.11307635518165,-1.5393087727796553,-0.3738815312682012,9.72887501911174,-0.0004472233721856598,0.0009949387174156595,0.001090830782496456,27.7791708602881,-14.237566200545675,-60.25
1771535073.2712145,0.0012267380793089923,1.8123388360066834,-9.11307635518165,-1.5472940884836321,-0.36649686321467706,9.729251337785723,-0.0004472233721856598,0.0009949387174156595,0.001090830782496456,28.559978613846024,-14.29773680785382,-62.5625
1771535073.2916055,0.0012267380793089923,1.8123388360066834,-9.11307635518165,-1.5526082268828076,-0.3615824491172041,9.732846885366822,-0.0015426540626456591,-0.0018893854617869793,-0.004363323129985824,28.559978613846024,-14.29773680785382,-62.5625
1771535073.3090215,0.0012267380793089923,1.8123388360066834,-9.11307635518165,-1.5547732837188415,-0.36136301316808983,9.731894570409827,-0.004426978241848298,-0.0007939547713269798,0.001090830782496456,27.932914930643182,-14.579600936838133,-61.0625
1771535073.3236623,0.0012267380793089923,1.8123388360066834,-9.11307635518165,-1.5547732837188415,-0.36136301316808983,9.731894570409827,-0.004426978241848298,-0.0007939547713269798,0.001090830782496456,27.932914930643182,-14.579600936838133,-61.0625
1771535073.3563783,0.0012267380793089923,1.8123388360066834,-9.11307635518165,-1.5504201673111973,-0.36594764155971554,9.727915703736683,-0.001889385461786979,0.0015426540626456594,0.002181661564992912,27.932914930643182,-14.579600936838133,-61.0625
1771535073.4137175,-54.88568137734722,-27.065340889982263,130.4026363893199,-1.55026610278101,-0.3628965570703846,9.725267812412557,0.0004472233721856598,-0.0009949387174156595,0.0,27.34039784302264,-14.023651522882451,-61.75
1771535073.46308,0.0012267380793089923,1.8123388360066834,-9.11307635518165,-1.5501635745571842,-0.3608660944255818,9.720160558607917,0.0005477153452299997,0.0014421620896013193,-0.001090830782496456,27.34039784302264,-14.023651522882451,-61.75
1771535073.5049038,0.0012267380793089923,1.8123388360066834,-9.11307635518165,-1.5531463949046949,-0.36088628712302145,9.716761738252693,0.0024371008070169786,-0.00010049197304433991,0.001090830782496456,28.559978613846024,-14.29773680785382,-61.0625
1771535073.5661995,0.0012267380793089923,1.8123388360066834,-9.11307635518165,-1.5531463949046949,-0.36088628712302145,9.716761738252693,0.0024371008070169786,-0.00010049197304433991,0.001090830782496456,28.559978613846024,-14.29773680785382,-61.0625
1771535073.6036437,0.0012267380793089923,1.8123388360066834,-9.11307635518165,-1.552388542714073,-0.36700182860790326,9.714499861273602,-0.0028843241792026386,0.0010954306904599994,-0.002181661564992912,28.559978613846024,-14.29773680785382,-61.0625
1771535073.6774611,0.0012267380793089923,1.8123388360066834,-9.11307635518165,-1.5545996182037984,-0.375151518827343,9.733170705264303,-0.0004472233721856598,0.0009949387174156595,0.0,28.68809867247526,-14.582765754764203,-61.5
1771535073.7094464,0.0012267380793089923,1.8123388360066834,-9.11307635518165,-1.5545996182037984,-0.375151518827343,9.733170705264303,-0.0004472233721856598,0.0009949387174156595,0.0,28.68809867247526,-14.582765754764203,-61.5
1771535073.7881742,0.0012267380793089923,1.8123388360066834,-9.11307635518165,-1.55640669832121,-0.3778666238598518,9.742145404056254,-0.002984816152246979,-0.0013416701165569794,0.001090830782496456,27.494141913377717,-14.36568625917491,-59.75
1771535073.819778,0.0012267380793089923,1.8123388360066834,-9.11307635518165,-1.5576092899529397,-0.37967349592927585,9.741427742433704,0.0024371008070169786,-0.00010049197304433991,-0.001090830782496456,27.625426789933023,-13.895531464253217,-60.25
1771535073.8456888,0.0012267380793089923,1.8123388360066834,-9.11307635518165,-1.5553585495148756,-0.37950450620159215,9.734259923226062,0.0015426540626456591,0.0018893854617869793,-0.002181661564992912,27.625426789933023,-13.895531464253217,-60.25
1771535073.870396,0.0012267380793089923,1.8123388360066834,-9.11307635518165,-1.555232149801564,-0.3763409936904061,9.736180043027804,0.001989877434831319,0.0008944467443713196,0.001090830782496456,27.625426789933023,-13.895531464253217,-60.25
1771535073.9045393,0.0012267380793089923,1.8123388360066834,-9.11307635518165,-1.555232149801564,-0.3763409936904061,9.736180043027804,0.001989877434831319,0.0008944467443713196,0.001090830782496456,27.625426789933023,-13.895531464253217,-60.25
1771535073.9355493,0.0012267380793089923,1.8123388360066834,-9.11307635518165,-1.5520969804691809,-0.3728642685471601,9.744148084721358,0.001989877434831319,0.0008944467443713196,0.001090830782496456,28.46640515079909,-13.17489431800344,-61.5
1771535073.97198,0.0012267380793089923,1.8123388360066834,-9.11307635518165,-1.550010560300616,-0.3705505468018944,9.74945072745956,0.0009949387174156595,0.0004472233721856598,0.0,28.46640515079909,-13.17489431800344,-61.5
1771535073.9873934,0.0012267380793089923,1.8123388360066834,-9.11307635518165,-1.5469424621559271,-0.3645882961854322,9.742944241845475,0.0004472233721856598,-0.0009949387174156595,-0.002181661564992912,28.46640515079909,-13.17489431800344,-61.5
1771535074.019156,0.0012267380793089923,1.8123388360066834,-9.11307635518165,-1.5469424621559271,-0.3645882961854322,9.742944241845475,0.0004472233721856598,-0.0009949387174156595,-0.002181661564992912,28.46640515079909,-13.17489431800344,-61.5
1771535074.049531,0.0012267380793089923,1.8123388360066834,-9.11307635518165,-1.5496313376780395,-0.36641442254963524,9.73192402493687,0.0005477153452299997,0.0014421620896013193,0.0,27.34039784302264,-14.023651522882451,-61.5
1771535074.074042,0.0012267380793089923,1.8123388360066834,-9.11307635518165,-1.5466900937367967,-0.36183575169908905,9.724590193688082,0.0,0.0,0.001090830782496456,27.34039784302264,-14.023651522882451,-61.5
1771535074.1037576,0.0012267380793089923,1.8123388360066834,-9.11307635518165,-1.5466900937367967,-0.36183575169908905,9.724590193688082,0.0,0.0,0.001090830782496456,27.34039784302264,-14.023651522882451,-61.5
1771535074.1370609,0.0012267380793089923,1.8123388360066834,-9.11307635518165,-1.5419898429381433,-0.3648908008654582,9.726399834330914,0.0,0.0,0.001090830782496456,28.867466754556187,-14.98180628043874,-61.0625
1771535074.1657379,0.0012267380793089923,1.8123388360066834,-9.11307635518165,-1.5416047643484851,-0.3608217984882386,9.727604129963709,-0.0014421620896013193,0.0005477153452299997,0.0,28.867466754556187,-14.98180628043874,-61.0625
1771535074.1884696,0.0012267380793089923,1.8123388360066834,-9.11307635518165,-1.5386056130370733,-0.3642160263302367,9.72840557525447,0.0,0.0,-0.001090830782496456,28.867466754556187,-14.98180628043874,-61.0625
1771535074.224225,0.0012267380793089923,1.8123388360066834,-9.11307635518165,-1.5393525971536481,-0.36037274357277416,9.732284039850061,0.0009949387174156595,0.0004472233721856598,0.002181661564992912,27.725329888832093,-13.508006470439447,-61.5
1771535074.2422402,0.0012267380793089923,1.8123388360066834,-9.11307635518165,-1.5393525971536481,-0.36037274357277416,9.732284039850061,0.0009949387174156595,0.0004472233721856598,0.002181661564992912,27.725329888832093,-13.508006470439447,-61.5
1771535074.2660012,0.0012267380793089923,1.8123388360066834,-9.11307635518165,-1.5357353780214635,-0.36696823703541875,9.734865114713138,0.002537592780061319,0.002336608833972639,-0.00545415391248228,27.725329888832093,-13.508006470439447,-61.5
1771535074.2877457,0.0012267380793089923,1.8123388360066834,-9.11307635518165,-1.5357353780214635,-0.36696823703541875,9.734865114713138,0.002537592780061319,0.002336608833972639,-0.00545415391248228,27.725329888832093,-13.508006470439447,-61.5
1771535074.3174484,0.0012267380793089923,1.8123388360066834,-9.11307635518165,-1.5374424878133859,-0.3622043090528648,9.723202344372742,0.002537592780061319,0.002336608833972639,-0.001090830782496456,27.725329888832093,-13.508006470439447,-61.5
1771535074.3362725,0.0012267380793089923,1.8123388360066834,-9.11307635518165,-1.5419377679689432,-0.36787895747894434,9.715440900992892,-0.0024371008070169786,0.00010049197304433991,0.0,27.725329888832093,-13.508006470439447,-61.5
1771535074.3890717,0.0012267380793089923,1.8123388360066834,-9.11307635518165,-1.538827223226594,-0.36891248680492006,9.72365619395388,-0.0005477153452299997,-0.0014421620896013193,0.0,28.902013350138485,-14.14399273749874,-61.0625
1771535074.4171667,0.0012267380793089923,1.8123388360066834,-9.11307635518165,-1.5353857475418204,-0.37265134076122935,9.732468491355903,-0.0014421620896013193,0.0005477153452299997,-0.002181661564992912,28.902013350138485,-14.14399273749874,-61.0625
1771535074.4409091,0.0012267380793089923,1.8123388360066834,-9.11307635518165,-1.5330954839174058,-0.3751395063034178,9.738332976837137,0.0009949387174156595,0.0004472233721856598,-0.001090830782496456,27.932914930643182,-14.579600936838133,-61.5
1771535074.465774,0.0012267380793089923,1.8123388360066834,-9.11307635518165,-1.5330954839174058,-0.3751395063034178,9.738332976837137,0.0009949387174156595,0.0004472233721856598,-0.001090830782496456,27.932914930643182,-14.579600936838133,-61.5
1771535074.4987164,0.0012267380793089923,1.8123388360066834,-9.11307635518165,-1.5326346160415332,-0.3662707545658576,9.742235726414304,0.0009949387174156595,0.0004472233721856598,-0.002181661564992912,27.932914930643182,-14.579600936838133,-61.5
1771535074.531184,0.0012267380793089923,1.8123388360066834,-9.11307635518165,-1.5326346160415332,-0.3662707545658576,9.742235726414304,0.0009949387174156595,0.0004472233721856598,-0.002181661564992912,27.932914930643182,-14.579600936838133,-61.5
1771535074.563728,0.0012267380793089923,1.8123388360066834,-9.11307635518165,-1.5414810688238259,-0.3644830280723654,9.744832962661338,0.0015426540626456591,0.0018893854617869793,-0.001090830782496456,27.7791708602881,-14.237566200545675,-61.5
1771535074.592996,0.0012267380793089923,1.8123388360066834,-9.11307635518165,-1.5415743467823337,-0.36802397662566083,9.74321628266339,0.0005477153452299997,0.0014421620896013193,0.0,27.7791708602881,-14.237566200545675,-61.5
1771535074.6255517,0.0012267380793089923,1.8123388360066834,-9.11307635518165,-1.5416364222217376,-0.37038043833289175,9.732105065062296,-0.001989877434831319,-0.0008944467443713196,0.001090830782496456,28.252490473135865,-13.613667335268904,-61.0625
1771535074.6739228,0.0012267380793089923,1.8123388360066834,-9.11307635518165,-1.5416364222217376,-0.37038043833289175,9.732105065062296,-0.001989877434831319,-0.0008944467443713196,0.001090830782496456,28.252490473135865,-13.613667335268904,-61.0625
1771535074.7062693,0.0012267380793089923,1.8123388360066834,-9.11307635518165,-1.5416777327332327,-0.37194863727565186,9.73140089728384,-0.0009949387174156595,-0.0004472233721856598,0.001090830782496456,28.252490473135865,-13.613667335268904,-61.0625
1771535074.7364976,0.0012267380793089923,1.8123388360066834,-9.11307635518165,-1.5413970584936167,-0.365518709778024,9.727587169786029,0.0015426540626456591,0.0018893854617869793,0.0,27.494141913377717,-14.36568625917491,-61.0625
1771535074.7816453,0.0012267380793089923,1.8123388360066834,-9.11307635518165,-1.5442613246576402,-0.36261110776115085,9.728394288445681,-0.0004472233721856598,0.0009949387174156595,0.001090830782496456,27.494141913377717,-14.36568625917491,-61.0625
1771535074.829053,0.0012267380793089923,1.8123388360066834,-9.11307635518165,-1.5442613246576402,-0.36261110776115085,9.728394288445681,-0.0004472233721856598,0.0009949387174156595,0.001090830782496456,27.494141913377717,-14.36568625917491,-61.0625
1771535074.8832233,0.0012267380793089923,1.8123388360066834,-9.11307635518165,-1.5431164100586967,-0.3593046881931626,9.728931416897574,0.001889385461786979,-0.0015426540626456594,-0.002181661564992912,28.252490473135865,-13.613667335268904,-61.0625
1771535074.9473119,0.0012267380793089923,1.8123388360066834,-9.11307635518165,-1.5495198626351914,-0.34932259060614057,9.73263398158951,0.00010049197304433991,0.002437100807016979,0.004363323129985824,28.252490473135865,-13.613667335268904,-61.0625
1771535074.996886,0.0012267380793089923,1.8123388360066834,-9.11307635518165,-1.5408219707942838,-0.3551919890334674,9.735097997031636,0.0014421620896013193,-0.0005477153452299997,-0.001090830782496456,27.725329888832093,-13.508006470439447,-60.5625
1771535075.0257032,0.0012267380793089923,1.8123388360066834,-9.11307635518165,-1.5408219707942838,-0.3551919890334674,9.735097997031636,0.0014421620896013193,-0.0005477153452299997,-0.001090830782496456,27.725329888832093,-13.508006470439447,-60.5625
1771535075.0712595,0.0012267380793089923,1.8123388360066834,-9.11307635518165,-1.5380846726711295,-0.36046945102717876,9.736737771783515,-0.0004472233721856598,0.0009949387174156595,0.0,27.725329888832093,-13.508006470439447,-60.5625
1771535075.1257758,0.0012267380793089923,1.8123388360066834,-9.11307635518165,-1.5362630313477936,-0.3639815430308805,9.741174135270725,0.0009949387174156595,0.0004472233721856598,0.0,27.932914930643182,-14.579600936838133,-61.0625
1771535075.1600337,0.0012267380793089923,1.8123388360066834,-9.11307635518165,-1.529873143696521,-0.3859965543434164,9.744126485614037,0.0,0.0,-0.001090830782496456,27.932914930643182,-14.579600936838133,-61.0625
1771535075.2141678,0.0012267380793089923,1.8123388360066834,-9.11307635518165,-1.529873143696521,-0.3859965543434164,9.744126485614037,0.0,0.0,-0.001090830782496456,27.932914930643182,-14.579600936838133,-61.0625
1771535075.2494652,0.0012267380793089923,1.8123388360066834,-9.11307635518165,-1.5338494022791322,-0.38234098803721017,9.746091241787596,0.0009949387174156595,0.0004472233721856598,0.001090830782496456,28.559978613846024,-14.29773680785382,-61.875
1771535075.2940218,0.0012267380793089923,1.8123388360066834,-9.11307635518165,-1.5364955579481414,-0.3799082494957812,9.744053653366016,0.0,0.0,-0.002181661564992912,28.559978613846024,-14.29773680785382,-61.875
1771535075.3246226,0.0012267380793089923,1.8123388360066834,-9.11307635518165,-1.5352054932512198,-0.3769178462661285,9.742697661032809,-0.0009949387174156595,-0.0004472233721856598,-0.001090830782496456,27.85344994746133,-13.79303541734983,-61.75
1771535075.373133,0.0012267380793089923,1.8123388360066834,-9.11307635518165,-1.5398327412295931,-0.36272355938118156,9.745140374989806,0.0005477153452299997,0.0014421620896013193,0.002181661564992912,27.85344994746133,-13.79303541734983,-61.75
1771535075.4305267,0.0012267380793089923,1.8123388360066834,-9.11307635518165,-1.541540680163652,-0.35632847175497473,9.746765973841283,-0.0014421620896013193,0.0005477153452299997,-0.001090830782496456,27.497306731303787,-13.610502517342834,-61.5
1771535075.5230315,0.0012267380793089923,1.8123388360066834,-9.11307635518165,-1.5426772944453397,-0.3520726123775436,9.741157568303175,-0.0009949387174156595,-0.0004472233721856598,-0.001090830782496456,27.497306731303787,-13.610502517342834,-61.5
1771535075.5364077,0.0012267380793089923,1.8123388360066834,-9.11307635518165,-1.5495358020232928,-0.35198327131453133,9.737425237067558,0.0,0.0,0.0,29.030133408767718,-14.429021684409124,-60.5625
1771535075.5657206,0.0012267380793089923,1.8123388360066834,-9.11307635518165,-1.5495358020232928,-0.35198327131453133,9.737425237067558,0.0,0.0,0.0,29.030133408767718,-14.429021684409124,-60.5625
1771535075.6029022,0.0012267380793089923,1.8123388360066834,-9.11307635518165,-1.5594216492041795,-0.3468027562952888,9.736633566409168,-0.0004472233721856598,0.0009949387174156595,-0.001090830782496456,28.594525209428323,-13.459923264913824,-62.25
1771535075.643036,0.0012267380793089923,1.8123388360066834,-9.11307635518165,-1.5593075401628,-0.3515272926950918,9.73441456434351,0.0004472233721856598,-0.0009949387174156595,0.0,28.594525209428323,-13.459923264913824,-62.25
1771535075.6682408,0.0012267380793089923,1.8123388360066834,-9.11307635518165,-1.5593075401628,-0.3515272926950918,9.73441456434351,0.0004472233721856598,-0.0009949387174156595,0.0,28.594525209428323,-13.459923264913824,-62.25
1771535075.6951132,0.0012267380793089923,1.8123388360066834,-9.11307635518165,-1.556180550135292,-0.3532999759868292,9.736282954964011,0.0015426540626456591,0.0018893854617869793,0.001090830782496456,28.007194017816406,-14.135070153642289,-60.5625
1771535075.730224,0.0012267380793089923,1.8123388360066834,-9.11307635518165,-1.5469341927501956,-0.36226138921496304,9.734181236343344,-0.001989877434831319,-0.0008944467443713196,-0.001090830782496456,28.007194017816406,-14.135070153642289,-60.5625
1771535075.7440321,0.0012267380793089923,1.8123388360066834,-9.11307635518165,-1.5448951739163996,-0.3590719544072868,9.732782566079026,0.0009949387174156595,0.0004472233721856598,0.002181661564992912,28.007194017816406,-14.135070153642289,-60.5625
1771535075.7721786,0.0012267380793089923,1.8123388360066834,-9.11307635518165,-1.542474952677587,-0.36747401928235585,9.731851766642292,0.001989877434831319,0.0008944467443713196,-0.001090830782496456,27.85344994746133,-13.79303541734983,-61.0625
1771535075.7934794,0.0012267380793089923,1.8123388360066834,-9.11307635518165,-1.542474952677587,-0.36747401928235585,9.731851766642292,0.001989877434831319,0.0008944467443713196,-0.001090830782496456,27.85344994746133,-13.79303541734983,-61.0625
1771535075.8131714,0.0012267380793089923,1.8123388360066834,-9.11307635518165,-1.543915374213951,-0.3744369425053017,9.734577441722175,-0.0014421620896013193,0.0005477153452299997,0.0,27.85344994746133,-13.79303541734983,-61.0625
1771535075.8477993,0.0012267380793089923,1.8123388360066834,-9.11307635518165,-1.5418229069206872,-0.3776992472234215,9.736391348040053,0.0015426540626456591,0.0018893854617869793,0.003272492347489368,27.85344994746133,-13.79303541734983,-61.0625
1771535075.868847,0.0012267380793089923,1.8123388360066834,-9.11307635518165,-1.5431732791230153,-0.37376817110069577,9.73759848243194,0.0014421620896013193,-0.0005477153452299997,-0.002181661564992912,28.902013350138485,-14.14399273749874,-60.25
1771535075.9000409,0.0012267380793089923,1.8123388360066834,-9.11307635518165,-1.5440719367390185,-0.3711520838540194,9.738401816885165,0.0005477153452299997,0.0014421620896013193,0.001090830782496456,28.902013350138485,-14.14399273749874,-60.25
1771535075.9225385,0.0012267380793089923,1.8123388360066834,-9.11307635518165,-1.5446699833438056,-0.3694111070149656,9.742281538697272,0.001989877434831319,0.0008944467443713196,0.0,28.594525209428323,-13.459923264913824,-61.0625
1771535075.9533424,0.0012267380793089923,1.8123388360066834,-9.11307635518165,-1.5423250908670691,-0.3743546098468638,9.744863450223896,-0.0004472233721856598,0.0009949387174156595,-0.001090830782496456,28.594525209428323,-13.459923264913824,-61.0625
1771535075.9828565,0.0012267380793089923,1.8123388360066834,-9.11307635518165,-1.5423250908670691,-0.3743546098468638,9.744863450223896,-0.0004472233721856598,0.0009949387174156595,-0.001090830782496456,28.594525209428323,-13.459923264913824,-61.0625
1771535076.0058348,0.0012267380793089923,1.8123388360066834,-9.11307635518165,-1.546250362741174,-0.36544024881834125,9.746581683503024,-0.0004472233721856598,0.0009949387174156595,0.001090830782496456,27.932914930643182,-14.579600936838133,-60.25
1771535076.023933,0.0012267380793089923,1.8123388360066834,-9.11307635518165,-1.546250362741174,-0.36544024881834125,9.746581683503024,-0.0004472233721856598,0.0009949387174156595,0.001090830782496456,27.932914930643182,-14.579600936838133,-60.25
1771535076.0662374,0.0012267380793089923,1.8123388360066834,-9.11307635518165,-1.5403257639668717,-0.3703406051686009,9.74103492514172,0.0,0.0,-0.003272492347489368,27.932914930643182,-14.579600936838133,-60.25
1771535076.1128721,0.0012267380793089923,1.8123388360066834,-9.11307635518165,-1.540497338382084,-0.3644485823736771,9.737343619413624,-0.0009949387174156595,-0.0004472233721856598,0.0,28.12437041450663,-13.32863838835852,-61.5
1771535076.152066,0.0012267380793089923,1.8123388360066834,-9.11307635518165,-1.540497338382084,-0.3644485823736771,9.737343619413624,-0.0009949387174156595,-0.0004472233721856598,0.0,28.12437041450663,-13.32863838835852,-61.5
1771535076.1976817,0.0012267380793089923,1.8123388360066834,-9.11307635518165,-1.5406115192387957,-0.3605275070218625,9.734887096686164,0.001989877434831319,0.0008944467443713196,0.001090830782496456,28.12437041450663,-13.32863838835852,-61.5
1771535076.228547,0.0012267380793089923,1.8123388360066834,-9.11307635518165,-1.5406875053234539,-0.35791807517651153,9.733252308252196,-0.0014421620896013193,0.0005477153452299997,-0.001090830782496456,28.289058146800723,-14.76213383684513,-60.25
1771535076.2624464,0.0012267380793089923,1.8123388360066834,-9.11307635518165,-1.5406875053234539,-0.35791807517651153,9.733252308252196,-0.0014421620896013193,0.0005477153452299997,-0.001090830782496456,28.289058146800723,-14.76213383684513,-60.25
1771535076.3286507,0.0012267380793089923,1.8123388360066834,-9.11307635518165,-1.5421095161197755,-0.35313047569754263,9.735509486518492,-0.0005477153452299997,-0.0014421620896013193,0.001090830782496456,28.289058146800723,-14.76213383684513,-60.25
1771535076.3954885,0.0012267380793089923,1.8123388360066834,-9.11307635518165,-1.5421095161197755,-0.35313047569754263,9.735509486518492,-0.0005477153452299997,-0.0014421620896013193,0.001090830782496456,28.289058146800723,-14.76213383684513,-60.25
1771535076.4370465,0.0012267380793089923,1.8123388360066834,-9.11307635518165,-1.5375700767966185,-0.3621485886658852,9.73366650173306,0.0,0.0,0.0,28.007194017816406,-14.135070153642289,-61.5
1771535076.4749882,0.0012267380793089923,1.8123388360066834,-9.11307635518165,-1.5375700767966185,-0.3621485886658852,9.73366650173306,0.0,0.0,0.0,28.007194017816406,-14.135070153642289,-61.5
1771535076.5443766,0.0012267380793089923,1.8123388360066834,-9.11307635518165,-1.5472002827116822,-0.34816412286713616,9.735785127653163,0.0,0.0,-0.001090830782496456,28.160938088171488,-14.477104889934747,-63.0625
1771535076.6629124,0.0012267380793089923,1.8123388360066834,-9.11307635518165,-1.5491963299075746,-0.35196960090553625,9.735907202325942,-0.001889385461786979,0.0015426540626456594,0.001090830782496456,27.85344994746133,-13.79303541734983,-61.875
1771535076.6982315,0.0012267380793089923,1.8123388360066834,-9.11307635518165,-1.5450291580191056,-0.3552739359893231,9.74062140057478,0.0,0.0,0.001090830782496456,27.85344994746133,-13.79303541734983,-61.875
1771535076.7654335,0.0012267380793089923,1.8123388360066834,-9.11307635518165,-1.53995165086421,-0.3599569536257245,9.772595522863591,0.005220933013175277,-0.0036330234705213176,-0.003272492347489368,29.30105387581302,-13.964624655417813,-60.6875
1771535076.7808983,0.0012267380793089923,1.8123388360066834,-9.11307635518165,-1.5463504737616827,-0.3602812640764846,9.795143073423066,-0.0014421620896013193,0.0005477153452299997,0.003272492347489368,29.30105387581302,-13.964624655417813,-60.6875
1771535076.8151562,0.0012267380793089923,1.8123388360066834,-9.11307635518165,-1.5463504737616827,-0.3602812640764846,9.795143073423066,-0.0014421620896013193,0.0005477153452299997,0.003272492347489368,29.30105387581302,-13.964624655417813,-60.6875
1771535076.8428326,0.0012267380793089923,1.8123388360066834,-9.11307635518165,-1.5315473974508,-0.37026657611123004,9.800112881325795,0.0014421620896013193,-0.0005477153452299997,-0.001090830782496456,27.85344994746133,-13.79303541734983,-61.5
1771535076.8669205,0.0012267380793089923,1.8123388360066834,-9.11307635518165,-1.5407575369967204,-0.3671422026745593,9.776659339310115,0.0010954306904599994,0.0028843241792026386,0.001090830782496456,27.85344994746133,-13.79303541734983,-61.5
1771535076.901136,0.0012267380793089923,1.8123388360066834,-9.11307635518165,-1.5455153390747287,-0.3681140187891447,9.747670822262632,0.0010954306904599994,0.0028843241792026386,0.001090830782496456,28.160938088171488,-14.477104889934747,-61.5
1771535076.9619043,0.0012267380793089923,1.8123388360066834,-9.11307635518165,-1.5455153390747287,-0.3681140187891447,9.747670822262632,0.0010954306904599994,0.0028843241792026386,0.001090830782496456,28.160938088171488,-14.477104889934747,-61.5
1771535077.0414612,0.0012267380793089923,1.8123388360066834,-9.11307635518165,-1.54773766488657,-0.3678197020845665,9.751206418986985,0.002984816152246979,0.0013416701165569794,-0.001090830782496456,28.007194017816406,-14.135070153642289,-61.0625
1771535077.0791295,0.0012267380793089923,1.8123388360066834,-9.11307635518165,-1.54773766488657,-0.3678197020845665,9.751206418986985,0.002984816152246979,0.0013416701165569794,-0.001090830782496456,28.007194017816406,-14.135070153642289,-61.0625
1771535077.1338406,0.0012267380793089923,1.8123388360066834,-9.11307635518165,-1.547150200403902,-0.36575606563995344,9.75164145051,0.001989877434831319,0.0008944467443713196,-0.001090830782496456,27.932914930643182,-14.579600936838133,-61.0625
1771535077.1567826,0.0012267380793089923,1.8123388360066834,-9.11307635518165,-1.5439756476147233,-0.3719222206412806,9.744402143563564,-0.001889385461786979,0.0015426540626456594,-0.002181661564992912,27.932914930643182,-14.579600936838133,-61.0625
1771535077.1873305,0.0012267380793089923,1.8123388360066834,-9.11307635518165,-1.537132357631102,-0.3702317903674441,9.739584465659068,-0.0004472233721856598,0.0009949387174156595,0.003272492347489368,27.932914930643182,-14.579600936838133,-61.0625
1771535077.218994,0.0012267380793089923,1.8123388360066834,-9.11307635518165,-1.53257822459156,-0.36910682790354926,9.729688131415974,0.0,0.0,-0.002181661564992912,28.406234543490942,-13.955702071561362,-61.5
1771535077.239805,0.0012267380793089923,1.8123388360066834,-9.11307635518165,-1.53257822459156,-0.36910682790354926,9.729688131415974,0.0,0.0,-0.002181661564992912,28.406234543490942,-13.955702071561362,-61.5
1771535077.2595713,0.0012267380793089923,1.8123388360066834,-9.11307635518165,-1.5356496033970473,-0.3711010637620852,9.726447343233811,0.0,0.0,0.001090830782496456,28.406234543490942,-13.955702071561362,-61.5
1771535077.281027,0.0012267380793089923,1.8123388360066834,-9.11307635518165,-1.5431793433057572,-0.36022399850826076,9.724290634900559,0.0,0.0,0.0,28.406234543490942,-13.955702071561362,-61.5
1771535077.3031437,0.0012267380793089923,1.8123388360066834,-9.11307635518165,-1.5431793433057572,-0.36022399850826076,9.724290634900559,0.0,0.0,0.0,28.406234543490942,-13.955702071561362,-61.5
1771535077.3267837,0.0012267380793089923,1.8123388360066834,-9.11307635518165,-1.544075972384892,-0.36213858829207524,9.729545593011428,-0.0015426540626456591,-0.0018893854617869793,0.0,27.497306731303787,-13.610502517342834,-61.0625
1771535077.3550854,0.0012267380793089923,1.8123388360066834,-9.11307635518165,-1.5416216172859019,-0.3620412835000326,9.736387820639804,-0.001889385461786979,0.0015426540626456594,0.001090830782496456,27.497306731303787,-13.610502517342834,-61.0625
1771535077.369053,0.0012267380793089923,1.8123388360066834,-9.11307635518165,-1.5399882713844664,-0.361976528247894,9.737596134986477,-0.0014421620896013193,0.0005477153452299997,0.001090830782496456,27.497306731303787,-13.610502517342834,-61.0625
1771535077.3966696,0.0012267380793089923,1.8123388360066834,-9.11307635518165,-1.5399882713844664,-0.361976528247894,9.737596134986477,-0.0014421620896013193,0.0005477153452299997,0.001090830782496456,27.497306731303787,-13.610502517342834,-61.0625
1771535077.4193342,0.0012267380793089923,1.8123388360066834,-9.11307635518165,-1.5402727408385324,-0.35888238261580785,9.731710031271794,-0.0035325314974769782,-0.0027838322061582987,-0.002181661564992912,26.93041365540909,-13.111558892769226,-61.0625
1771535077.4412065,0.0012267380793089923,1.8123388360066834,-9.11307635518165,-1.5402727408385324,-0.35888238261580785,9.731710031271794,-0.0035325314974769782,-0.0027838322061582987,-0.002181661564992912,26.93041365540909,-13.111558892769226,-61.0625
1771535077.4759548,0.0012267380793089923,1.8123388360066834,-9.11307635518165,-1.5435131038176328,-0.3581947061673278,9.724447783294439,-0.0009949387174156595,-0.0004472233721856598,0.001090830782496456,26.93041365540909,-13.111558892769226,-61.0625
1771535077.5036476,0.0012267380793089923,1.8123388360066834,-9.11307635518165,-1.542926643371394,-0.3638391686430165,9.719614838390134,0.001989877434831319,0.0008944467443713196,-0.001090830782496456,28.406234543490942,-13.955702071561362,-60.6875
1771535077.5161371,0.0012267380793089923,1.8123388360066834,-9.11307635518165,-1.5425363604956146,-0.36759549536781017,9.72308879095849,0.002984816152246979,0.0013416701165569794,0.0,28.406234543490942,-13.955702071561362,-60.6875
1771535077.533661,0.0012267380793089923,1.8123388360066834,-9.11307635518165,-1.5405970227721792,-0.36567279420128806,9.728745779293458,-0.0004472233721856598,0.0009949387174156595,0.001090830782496456,28.406234543490942,-13.955702071561362,-60.6875
1771535077.5484872,0.0012267380793089923,1.8123388360066834,-9.11307635518165,-1.5405970227721792,-0.36567279420128806,9.728745779293458,-0.0004472233721856598,0.0009949387174156595,0.001090830782496456,28.406234543490942,-13.955702071561362,-60.6875
1771535077.5723732,0.0012267380793089923,1.8123388360066834,-9.11307635518165,-1.5434207438984604,-0.35524010284749247,9.72916533013036,0.0,0.0,-0.002181661564992912,27.932914930643182,-14.579600936838133,-61.5
1771535077.5933895,0.0012267380793089923,1.8123388360066834,-9.11307635518165,-1.5544530539704233,-0.3524115920097457,9.732789648232949,0.0009949387174156595,0.0004472233721856598,-0.001090830782496456,27.932914930643182,-14.579600936838133,-61.5
1771535077.6077056,0.0012267380793089923,1.8123388360066834,-9.11307635518165,-1.5544530539704233,-0.3524115920097457,9.732789648232949,0.0009949387174156595,0.0004472233721856598,-0.001090830782496456,27.932914930643182,-14.579600936838133,-61.5
1771535077.6398568,0.0012267380793089923,1.8123388360066834,-9.11307635518165,-1.5576806043669305,-0.3596824048492161,9.728511368029295,-0.0014421620896013193,0.0005477153452299997,0.0,28.406234543490942,-13.955702071561362,-61.5
1771535077.6739469,0.0012267380793089923,1.8123388360066834,-9.11307635518165,-1.5567774513665542,-0.36314960666778046,9.735699555467244,-0.0004472233721856598,0.0009949387174156595,0.001090830782496456,28.406234543490942,-13.955702071561362,-61.5
1771535077.6888072,0.0012267380793089923,1.8123388360066834,-9.11307635518165,-1.5567774513665542,-0.36314960666778046,9.735699555467244,-0.0004472233721856598,0.0009949387174156595,0.001090830782496456,28.406234543490942,-13.955702071561362,-61.5
1771535077.7034402,0.0012267380793089923,1.8123388360066834,-9.11307635518165,-1.5575478560394855,-0.3624059390117015,9.733792990495244,0.0,0.0,0.001090830782496456,28.406234543490942,-13.955702071561362,-61.5
1771535077.716158,0.0012267380793089923,1.8123388360066834,-9.11307635518165,-1.5580605517433375,-0.36191103649389295,9.732524192804105,0.001989877434831319,0.0008944467443713196,0.0,27.725329888832093,-13.508006470439447,-60.5625
1771535077.7385156,0.0012267380793089923,1.8123388360066834,-9.11307635518165,-1.5580605517433375,-0.36191103649389295,9.732524192804105,0.001989877434831319,0.0008944467443713196,0.0,27.725329888832093,-13.508006470439447,-60.5625
1771535077.763802,0.0012267380793089923,1.8123388360066834,-9.11307635518165,-1.5522996415367616,-0.358838798585111,9.721644486992092,0.0013416701165569794,-0.002984816152246979,0.0,27.725329888832093,-13.508006470439447,-60.5625
1771535077.7793324,0.0012267380793089923,1.8123388360066834,-9.11307635518165,-1.5454147684127175,-0.35542281567016076,9.714404164308476,-0.0028843241792026386,0.0010954306904599994,0.0,27.725329888832093,-13.508006470439447,-60.5625
1771535077.793785,0.0012267380793089923,1.8123388360066834,-9.11307635518165,-1.5408329622577384,-0.35314951719929083,9.712930922149551,-0.0004472233721856598,0.0009949387174156595,0.001090830782496456,27.625426789933023,-13.895531464253217,-61.5
1771535077.8073044,0.0012267380793089923,1.8123388360066834,-9.11307635518165,-1.5408329622577384,-0.35314951719929083,9.712930922149551,-0.0004472233721856598,0.0009949387174156595,0.001090830782496456,27.625426789933023,-13.895531464253217,-61.5
1771535077.8235395,0.0012267380793089923,1.8123388360066834,-9.11307635518165,-1.537783821443728,-0.35163666246133474,9.71864071936462,0.0010954306904599994,0.0028843241792026386,0.002181661564992912,27.625426789933023,-13.895531464253217,-61.5
1771535077.8366528,0.0012267380793089923,1.8123388360066834,-9.11307635518165,-1.5432281986692438,-0.35032170860937206,9.735820972457912,0.0004472233721856598,-0.0009949387174156595,0.0,27.625426789933023,-13.895531464253217,-61.5
1771535077.8493652,0.0012267380793089923,1.8123388360066834,-9.11307635518165,-1.5432281986692438,-0.35032170860937206,9.735820972457912,0.0004472233721856598,-0.0009949387174156595,0.0,27.625426789933023,-13.895531464253217,-61.5
1771535077.862292,0.0012267380793089923,1.8123388360066834,-9.11307635518165,-1.546851370895146,-0.34944662150988787,9.747254238975495,0.0009949387174156595,0.0004472233721856598,0.0,28.559978613846024,-14.29773680785382,-61.0625
1771535077.8750026,0.0012267380793089923,1.8123388360066834,-9.11307635518165,-1.5523136032731495,-0.35023570372634644,9.738137391588394,0.0034320395244326384,0.00034673139914132,0.001090830782496456,28.559978613846024,-14.29773680785382,-61.0625
1771535077.888944,0.0012267380793089923,1.8123388360066834,-9.11307635518165,-1.5523136032731495,-0.35023570372634644,9.738137391588394,0.0034320395244326384,0.00034673139914132,0.001090830782496456,28.559978613846024,-14.29773680785382,-61.0625
1771535077.9066603,0.0012267380793089923,1.8123388360066834,-9.11307635518165,-1.5559486579035773,-0.35076082912677375,9.732070231494136,-0.0004472233721856598,0.0009949387174156595,0.001090830782496456,28.559978613846024,-14.29773680785382,-61.0625
1771535077.920316,0.0012267380793089923,1.8123388360066834,-9.11307635518165,-1.5583677461539063,-0.35111029421472306,9.728032604226028,-0.0005477153452299997,-0.0014421620896013193,-0.002181661564992912,28.289058146800723,-14.76213383684513,-61.5
1771535077.93343,0.0012267380793089923,1.8123388360066834,-9.11307635518165,-1.5583677461539063,-0.35111029421472306,9.728032604226028,-0.0005477153452299997,-0.0014421620896013193,-0.002181661564992912,28.289058146800723,-14.76213383684513,-61.5
1771535077.948232,0.0012267380793089923,1.8123388360066834,-9.11307635518165,-1.5586061794557118,-0.3543939110621239,9.742071166918949,-0.0009949387174156595,-0.0004472233721856598,0.0,28.289058146800723,-14.76213383684513,-61.5
1771535077.9628072,0.0012267380793089923,1.8123388360066834,-9.11307635518165,-1.5586061794557118,-0.3543939110621239,9.742071166918949,-0.0009949387174156595,-0.0004472233721856598,0.0,28.289058146800723,-14.76213383684513,-61.5
1771535077.9822931,0.0012267380793089923,1.8123388360066834,-9.11307635518165,-1.5618159058897403,-0.35795056429946753,9.751413673570068,-0.0034320395244326384,-0.00034673139914132,0.003272492347489368,28.289058146800723,-14.76213383684513,-61.5
1771535077.9996378,0.0012267380793089923,1.8123388360066834,-9.11307635518165,-1.5639519429765927,-0.36031747729849983,9.750940783969112,-0.0024371008070169786,0.00010049197304433991,0.001090830782496456,27.725329888832093,-13.508006470439447,-61.875
1771535078.0221653,0.0012267380793089923,1.8123388360066834,-9.11307635518165,-1.5623224000616438,-0.36052118855340326,9.747280969514879,0.0,0.0,-0.002181661564992912,27.725329888832093,-13.508006470439447,-61.875
1771535078.0427654,0.0012267380793089923,1.8123388360066834,-9.11307635518165,-1.5623224000616438,-0.36052118855340326,9.747280969514879,0.0,0.0,-0.002181661564992912,27.725329888832093,-13.508006470439447,-61.875
1771535078.058652,0.0012267380793089923,1.8123388360066834,-9.11307635518165,-1.5581869057197808,-0.35928531321213575,9.744845403878394,-0.0005477153452299997,-0.0014421620896013193,-0.001090830782496456,27.725329888832093,-13.508006470439447,-61.875
1771535078.0712526,0.0012267380793089923,1.8123388360066834,-9.11307635518165,-1.5581869057197808,-0.35928531321213575,9.744845403878394,-0.0005477153452299997,-0.0014421620896013193,-0.001090830782496456,27.725329888832093,-13.508006470439447,-61.875
1771535078.0985203,0.0012267380793089923,1.8123388360066834,-9.11307635518165,-1.554063337525968,-0.36151390371330583,9.743224562154364,-0.0004472233721856598,0.0009949387174156595,0.001090830782496456,26.813237258718868,-13.917990658052995,-61.0625
1771535078.1345143,0.0012267380793089923,1.8123388360066834,-9.11307635518165,-1.5499477060504585,-0.366048057531999,9.73880079838569,0.0004472233721856598,-0.0009949387174156595,-0.001090830782496456,26.813237258718868,-13.917990658052995,-61.0625
1771535078.1598375,0.0012267380793089923,1.8123388360066834,-9.11307635518165,-1.5499477060504585,-0.366048057531999,9.73880079838569,0.0004472233721856598,-0.0009949387174156595,-0.001090830782496456,26.813237258718868,-13.917990658052995,-61.0625
1771535078.1849854,0.0012267380793089923,1.8123388360066834,-9.11307635518165,-1.5485802421839248,-0.36601443451337085,9.742547056428956,-0.0008944467443713196,0.001989877434831319,0.0,27.625426789933023,-13.895531464253217,-61.5
1771535078.2238379,0.0012267380793089923,1.8123388360066834,-9.11307635518165,-1.551029427915018,-0.3748370480519743,9.735004814186347,-0.0034320395244326384,-0.00034673139914132,-0.002181661564992912,27.625426789933023,-13.895531464253217,-61.5
1771535078.240025,0.0012267380793089923,1.8123388360066834,-9.11307635518165,-1.5526593336598633,-0.3807083988068641,9.743365983055535,0.0,0.0,-0.001090830782496456,27.625426789933023,-13.895531464253217,-61.5
1771535078.2584643,0.0012267380793089923,1.8123388360066834,-9.11307635518165,-1.5537440177258177,-0.38461571714695786,9.742240024122964,0.0004472233721856598,-0.0009949387174156595,0.0,28.289058146800723,-14.76213383684513,-61.0625
1771535078.272847,0.0012267380793089923,1.8123388360066834,-9.11307635518165,-1.5537440177258177,-0.38461571714695786,9.742240024122964,0.0004472233721856598,-0.0009949387174156595,0.0,28.289058146800723,-14.76213383684513,-61.0625
1771535078.2959268,0.0012267380793089923,1.8123388360066834,-9.11307635518165,-1.5524780881020983,-0.37531995283762626,9.741490711031123,-0.002984816152246979,-0.0013416701165569794,0.0,28.289058146800723,-14.76213383684513,-61.0625
1771535078.3144846,0.0012267380793089923,1.8123388360066834,-9.11307635518165,-1.5530070689846753,-0.3660826737951059,9.73764693983156,0.001989877434831319,0.0008944467443713196,0.001090830782496456,28.289058146800723,-14.76213383684513,-61.0625
1771535078.3299596,0.0012267380793089923,1.8123388360066834,-9.11307635518165,-1.5533590998529268,-0.3599353677794766,9.731743841328669,0.0014421620896013193,-0.0005477153452299997,0.0,27.545961806751166,-13.108965944764911,-61.0625
1771535078.3439813,0.0012267380793089923,1.8123388360066834,-9.11307635518165,-1.5533590998529268,-0.3599353677794766,9.731743841328669,0.0014421620896013193,-0.0005477153452299997,0.0,27.545961806751166,-13.108965944764911,-61.0625
1771535078.36542,0.0012267380793089923,1.8123388360066834,-9.11307635518165,-1.5522219295575035,-0.35889545603113443,9.727815395216926,-0.004426978241848298,-0.0007939547713269798,0.0,27.545961806751166,-13.108965944764911,-61.0625
1771535078.405012,0.0012267380793089923,1.8123388360066834,-9.11307635518165,-1.5446079408999145,-0.3734586650549454,9.728546169920499,-0.00010049197304433991,-0.002437100807016979,0.001090830782496456,27.545961806751166,-13.108965944764911,-61.0625
1771535078.4252396,0.0012267380793089923,1.8123388360066834,-9.11307635518165,-1.5395409165021152,-0.3831503179785875,9.732377604029757,0.0009949387174156595,0.0004472233721856598,-0.003272492347489368,28.160938088171488,-14.477104889934747,-61.0625
1771535078.4426372,0.0012267380793089923,1.8123388360066834,-9.11307635518165,-1.5416546399909588,-0.3773957977958085,9.734927380629546,-0.0014421620896013193,0.0005477153452299997,0.003272492347489368,28.160938088171488,-14.477104889934747,-61.0625
1771535078.45731,0.0012267380793089923,1.8123388360066834,-9.11307635518165,-1.5416546399909588,-0.3773957977958085,9.734927380629546,-0.0014421620896013193,0.0005477153452299997,0.003272492347489368,28.160938088171488,-14.477104889934747,-61.0625
1771535078.482979,0.0012267380793089923,1.8123388360066834,-9.11307635518165,-1.5471756280783513,-0.3644130736909171,9.736624228473834,-0.0005477153452299997,-0.0014421620896013193,0.001090830782496456,28.160938088171488,-14.477104889934747,-61.0625
1771535078.5022864,0.0012267380793089923,1.8123388360066834,-9.11307635518165,-1.550849783977033,-0.35577321582564264,9.737753461759176,0.0,0.0,-0.004363323129985824,28.160938088171488,-14.477104889934747,-61.875
1771535078.520184,0.0012267380793089923,1.8123388360066834,-9.11307635518165,-1.5433866274204342,-0.36390730269979416,9.725124507066932,0.0009949387174156595,0.0004472233721856598,0.001090830782496456,28.160938088171488,-14.477104889934747,-61.875
1771535078.5345116,0.0012267380793089923,1.8123388360066834,-9.11307635518165,-1.5433866274204342,-0.36390730269979416,9.725124507066932,0.0009949387174156595,0.0004472233721856598,0.001090830782496456,28.160938088171488,-14.477104889934747,-61.875
1771535078.5572264,0.0012267380793089923,1.8123388360066834,-9.11307635518165,-1.5326260425541836,-0.374051107215339,9.733445637330506,0.0005477153452299997,0.0014421620896013193,-0.001090830782496456,28.160938088171488,-14.477104889934747,-61.875
1771535078.5805023,0.0012267380793089923,1.8123388360066834,-9.11307635518165,-1.525464993529303,-0.3808016958067131,9.73563814486048,-0.0004472233721856598,0.0009949387174156595,-0.002181661564992912,27.31793864922286,-13.211461991668298,-61.0625
1771535078.6018207,0.0012267380793089923,1.8123388360066834,-9.11307635518165,-1.5336587133967163,-0.37278176424110343,9.737097234129765,0.0004472233721856598,-0.0009949387174156595,-0.001090830782496456,27.31793864922286,-13.211461991668298,-61.0625
1771535078.61844,0.0012267380793089923,1.8123388360066834,-9.11307635518165,-1.5404829853444337,-0.3643935376375443,9.738068241739377,-0.0014421620896013193,0.0005477153452299997,0.003272492347489368,27.31793864922286,-13.211461991668298,-61.0625
1771535078.6350324,0.0012267380793089923,1.8123388360066834,-9.11307635518165,-1.5404829853444337,-0.3643935376375443,9.738068241739377,-0.0014421620896013193,0.0005477153452299997,0.003272492347489368,27.31793864922286,-13.211461991668298,-61.0625
1771535078.6478746,0.0012267380793089923,1.8123388360066834,-9.11307635518165,-1.545024462093527,-0.35881126653550655,9.748749771578668,-0.0024371008070169786,0.00010049197304433991,-0.001090830782496456,27.497306731303787,-13.610502517342834,-61.875
1771535078.6628413,0.0012267380793089923,1.8123388360066834,-9.11307635518165,-1.548046764138429,-0.3550963274751545,9.755858210366208,-0.001989877434831319,-0.0008944467443713196,-0.002181661564992912,27.497306731303787,-13.610502517342834,-61.875
1771535078.6782136,0.0012267380793089923,1.8123388360066834,-9.11307635518165,-1.548046764138429,-0.3550963274751545,9.755858210366208,-0.001989877434831319,-0.0008944467443713196,-0.002181661564992912,27.497306731303787,-13.610502517342834,-61.875
1771535078.6913774,0.0012267380793089923,1.8123388360066834,-9.11307635518165,-1.5421375808767217,-0.37840393381609233,9.743863238436257,-0.0004472233721856598,0.0009949387174156595,-0.002181661564992912,27.497306731303787,-13.610502517342834,-61.875
1771535078.7036548,0.0012267380793089923,1.8123388360066834,-9.11307635518165,-1.5421375808767217,-0.37840393381609233,9.743863238436257,-0.0004472233721856598,0.0009949387174156595,-0.002181661564992912,27.497306731303787,-13.610502517342834,-61.875
1771535078.7158985,0.0012267380793089923,1.8123388360066834,-9.11307635518165,-1.5382050854259577,-0.393914885472964,9.73588071860949,0.0005477153452299997,0.0014421620896013193,0.002181661564992912,28.289058146800723,-14.76213383684513,-61.0625
1771535078.7278726,0.0012267380793089923,1.8123388360066834,-9.11307635518165,-1.5424452681613363,-0.3889819918561716,9.737258664250003,-0.003979754869662638,-0.0017888934887426392,0.001090830782496456,28.289058146800723,-14.76213383684513,-61.0625
1771535078.7398071,0.0012267380793089923,1.8123388360066834,-9.11307635518165,-1.5424452681613363,-0.3889819918561716,9.737258664250003,-0.003979754869662638,-0.0017888934887426392,0.001090830782496456,28.289058146800723,-14.76213383684513,-61.0625
1771535078.752209,0.0012267380793089923,1.8123388360066834,-9.11307635518165,-1.546638505311588,-0.38264815452307704,9.738175671681104,0.0,0.0,0.0,28.289058146800723,-14.76213383684513,-61.0625
1771535078.7641506,0.0012267380793089923,1.8123388360066834,-9.11307635518165,-1.5508005006993544,-0.37538200479635014,9.738785929882857,-0.0004472233721856598,0.0009949387174156595,0.001090830782496456,28.007194017816406,-14.135070153642289,-62.25
1771535078.7779753,0.0012267380793089923,1.8123388360066834,-9.11307635518165,-1.5508005006993544,-0.37538200479635014,9.738785929882857,-0.0004472233721856598,0.0009949387174156595,0.001090830782496456,28.007194017816406,-14.135070153642289,-62.25
1771535078.78992,0.0012267380793089923,1.8123388360066834,-9.11307635518165,-1.5604274766663875,-0.3552912046456668,9.739192049899094,-0.0008944467443713196,0.001989877434831319,0.002181661564992912,28.007194017816406,-14.135070153642289,-62.25
1771535078.8019736,0.0012267380793089923,1.8123388360066834,-9.11307635518165,-1.5604274766663875,-0.3552912046456668,9.739192049899094,-0.0008944467443713196,0.001989877434831319,0.002181661564992912,28.007194017816406,-14.135070153642289,-62.25
1771535078.813958,0.0012267380793089923,1.8123388360066834,-9.11307635518165,-1.56683412163208,-0.34192100157433,9.736117206525922,-0.0009949387174156595,-0.0004472233721856598,-0.002181661564992912,28.007194017816406,-14.135070153642289,-62.25
1771535078.8262534,0.0012267380793089923,1.8123388360066834,-9.11307635518165,-1.5642404577608255,-0.3482785394610672,9.734070932609328,0.0005477153452299997,0.0014421620896013193,-0.002181661564992912,28.406234543490942,-13.955702071561362,-61.5
1771535078.8381414,0.0012267380793089923,1.8123388360066834,-9.11307635518165,-1.5642404577608255,-0.3482785394610672,9.734070932609328,0.0005477153452299997,0.0014421620896013193,-0.002181661564992912,28.406234543490942,-13.955702071561362,-61.5
1771535078.8504593,0.0012267380793089923,1.8123388360066834,-9.11307635518165,-1.5570286318044217,-0.36471361684694514,9.739399383590849,-0.001989877434831319,-0.0008944467443713196,-0.002181661564992912,28.406234543490942,-13.955702071561362,-61.5
1771535078.8626173,0.0012267380793089923,1.8123388360066834,-9.11307635518165,-1.5570286318044217,-0.36471361684694514,9.739399383590849,-0.001989877434831319,-0.0008944467443713196,-0.002181661564992912,28.406234543490942,-13.955702071561362,-61.5
1771535078.8800054,0.0012267380793089923,1.8123388360066834,-9.11307635518165,-1.549486356380206,-0.381753080725706,9.742945408196354,-0.0009949387174156595,-0.0004472233721856598,0.003272492347489368,28.406234543490942,-13.955702071561362,-61.5
1771535078.8934543,0.0012267380793089923,1.8123388360066834,-9.11307635518165,-1.5353139011326726,-0.3889783248763322,9.745305247959628,-0.0014421620896013193,0.0005477153452299997,-0.001090830782496456,27.625426789933023,-13.895531464253217,-60.6875
1771535078.9066484,0.0012267380793089923,1.8123388360066834,-9.11307635518165,-1.5353139011326726,-0.3889783248763322,9.745305247959628,-0.0014421620896013193,0.0005477153452299997,-0.001090830782496456,27.625426789933023,-13.895531464253217,-60.6875
1771535078.9217424,0.0012267380793089923,1.8123388360066834,-9.11307635518165,-1.5313680621053454,-0.38158243720670254,9.74018547154631,-0.0024371008070169786,0.00010049197304433991,0.001090830782496456,27.625426789933023,-13.895531464253217,-60.6875
1771535078.9356015,0.0012267380793089923,1.8123388360066834,-9.11307635518165,-1.5342279219337767,-0.3644563496394367,9.736778317534897,-0.002537592780061319,-0.002336608833972639,0.002181661564992912,27.625426789933023,-13.895531464253217,-60.6875
1771535078.9487877,0.0012267380793089923,1.8123388360066834,-9.11307635518165,-1.5342279219337767,-0.3644563496394367,9.736778317534897,-0.002537592780061319,-0.002336608833972639,0.002181661564992912,27.625426789933023,-13.895531464253217,-60.6875
1771535078.9627442,0.0012267380793089923,1.8123388360066834,-9.11307635518165,-1.5452842819083248,-0.3571734583917603,9.734510894600707,0.0,0.0,0.0,29.14730980545794,-13.622589919125355,-60.6875
1771535078.9788957,0.0012267380793089923,1.8123388360066834,-9.11307635518165,-1.5495911142286016,-0.35095533271585566,9.736347061674095,0.0015426540626456591,0.0018893854617869793,-0.002181661564992912,29.14730980545794,-13.622589919125355,-60.6875
1771535078.9928486,0.0012267380793089923,1.8123388360066834,-9.11307635518165,-1.5495911142286016,-0.35095533271585566,9.736347061674095,0.0015426540626456591,0.0018893854617869793,-0.002181661564992912,29.14730980545794,-13.622589919125355,-60.6875
1771535079.009623,0.0012267380793089923,1.8123388360066834,-9.11307635518165,-1.5497143772156725,-0.35291934300985917,9.737569010350105,0.002984816152246979,0.0013416701165569794,-0.001090830782496456,29.14730980545794,-13.622589919125355,-60.6875
1771535079.0228126,0.0012267380793089923,1.8123388360066834,-9.11307635518165,-1.542939192827621,-0.36948162859684336,9.738382203543928,0.0009949387174156595,0.0004472233721856598,0.001090830782496456,28.061034989272418,-14.864629883748517,-61.5
1771535079.0350783,0.0012267380793089923,1.8123388360066834,-9.11307635518165,-1.542939192827621,-0.36948162859684336,9.738382203543928,0.0009949387174156595,0.0004472233721856598,0.001090830782496456,28.061034989272418,-14.864629883748517,-61.5
1771535079.0489235,0.0012267380793089923,1.8123388360066834,-9.11307635518165,-1.5384303833011415,-0.3805036446421288,9.738923374530454,-0.0009949387174156595,-0.0004472233721856598,0.001090830782496456,28.061034989272418,-14.864629883748517,-61.5
1771535079.0615954,0.0012267380793089923,1.8123388360066834,-9.11307635518165,-1.5439666442863307,-0.3770059091614755,9.735938406069392,-0.0004472233721856598,0.0009949387174156595,0.0,28.061034989272418,-14.864629883748517,-61.5
1771535079.074477,0.0012267380793089923,1.8123388360066834,-9.11307635518165,-1.5439666442863307,-0.3770059091614755,9.735938406069392,-0.0004472233721856598,0.0009949387174156595,0.0,28.061034989272418,-14.864629883748517,-61.5
1771535079.0867555,0.0012267380793089923,1.8123388360066834,-9.11307635518165,-1.5490224070336889,-0.3716271535362148,9.733951942902838,-0.0010954306904599994,-0.0028843241792026386,0.0,28.160938088171488,-14.477104889934747,-61.875
1771535079.0987144,0.0012267380793089923,1.8123388360066834,-9.11307635518165,-1.5493359089303338,-0.3666762088464391,9.732629973855744,0.0034320395244326384,0.00034673139914132,0.0,28.160938088171488,-14.477104889934747,-61.875
1771535079.1106646,0.0012267380793089923,1.8123388360066834,-9.11307635518165,-1.5493359089303338,-0.3666762088464391,9.732629973855744,0.0034320395244326384,0.00034673139914132,0.0,28.160938088171488,-14.477104889934747,-61.875
1771535079.1234176,0.0012267380793089923,1.8123388360066834,-9.11307635518165,-1.5522874267521092,-0.3572793069907664,9.735095329929583,-0.001989877434831319,-0.0008944467443713196,0.002181661564992912,28.160938088171488,-14.477104889934747,-61.875
1771535079.1359835,0.0012267380793089923,1.8123388360066834,-9.11307635518165,-1.5522874267521092,-0.3572793069907664,9.735095329929583,-0.001989877434831319,-0.0008944467443713196,0.002181661564992912,28.160938088171488,-14.477104889934747,-61.875
1771535079.1483257,0.0012267380793089923,1.8123388360066834,-9.11307635518165,-1.5542516288918864,-0.35102577377608796,9.736735996856892,-0.004426978241848298,-0.0007939547713269798,0.001090830782496456,28.406234543490942,-13.955702071561362,-60.6875
1771535079.1605885,0.0012267380793089923,1.8123388360066834,-9.11307635518165,-1.548701568945323,-0.36211937595402,9.734482730662247,0.0024371008070169786,-0.00010049197304433991,-0.003272492347489368,28.406234543490942,-13.955702071561362,-60.6875
1771535079.1737976,0.0012267380793089923,1.8123388360066834,-9.11307635518165,-1.548701568945323,-0.36211937595402,9.734482730662247,0.0024371008070169786,-0.00010049197304433991,-0.003272492347489368,28.406234543490942,-13.955702071561362,-60.6875
1771535079.1859987,0.0012267380793089923,1.8123388360066834,-9.11307635518165,-1.5450080660491168,-0.3695020442797776,9.732983207180343,0.0005477153452299997,0.0014421620896013193,-0.002181661564992912,28.406234543490942,-13.955702071561362,-60.6875
1771535079.1983442,0.0012267380793089923,1.8123388360066834,-9.11307635518165,-1.5439215240366244,-0.37136407584560893,9.731985291053912,-0.001989877434831319,-0.0008944467443713196,0.001090830782496456,28.061034989272418,-14.864629883748517,1986.9375
1771535079.211612,0.0012267380793089923,1.8123388360066834,-9.11307635518165,-1.5439215240366244,-0.37136407584560893,9.731985291053912,-0.001989877434831319,-0.0008944467443713196,0.001090830782496456,28.061034989272418,-14.864629883748517,1986.9375
1771535079.2236724,0.0012267380793089923,1.8123388360066834,-9.11307635518165,-1.5428902765412325,-0.36512969067630935,9.734666300726543,0.0005477153452299997,0.0014421620896013193,0.001090830782496456,28.061034989272418,-14.864629883748517,1986.9375
1771535079.2356384,0.0012267380793089923,1.8123388360066834,-9.11307635518165,-1.5428902765412325,-0.36512969067630935,9.734666300726543,0.0005477153452299997,0.0014421620896013193,0.001090830782496456,28.061034989272418,-14.864629883748517,1986.9375
1771535079.249233,0.0012267380793089923,1.8123388360066834,-9.11307635518165,-1.5422039928528386,-0.360980776988786,9.73645048271484,0.0004472233721856598,-0.0009949387174156595,-0.001090830782496456,28.061034989272418,-14.864629883748517,1986.9375
1771535079.2614465,0.0012267380793089923,1.8123388360066834,-9.11307635518165,-1.5431187216303053,-0.35516866954099036,9.737637835897432,-0.00034673139914131996,0.003432039524432639,0.0,27.7791708602881,-14.237566200545675,-61.5
1771535079.273411,0.0012267380793089923,1.8123388360066834,-9.11307635518165,-1.5431187216303053,-0.35516866954099036,9.737637835897432,-0.00034673139914131996,0.003432039524432639,0.0,27.7791708602881,-14.237566200545675,-61.5
1771535079.285492,0.0012267380793089923,1.8123388360066834,-9.11307635518165,-1.5484581239780206,-0.3570947145067319,9.728392671054886,0.0,0.0,0.0,27.7791708602881,-14.237566200545675,-61.5
1771535079.2996576,0.0012267380793089923,1.8123388360066834,-9.11307635518165,-1.5550624883305444,-0.3597479188219029,9.722240117127429,0.0,0.0,0.001090830782496456,27.7791708602881,-14.237566200545675,-61.5
1771535079.3129094,0.0012267380793089923,1.8123388360066834,-9.11307635518165,-1.5550624883305444,-0.3597479188219029,9.722240117127429,0.0,0.0,0.001090830782496456,27.7791708602881,-14.237566200545675,-61.5
1771535079.327649,0.0012267380793089923,1.8123388360066834,-9.11307635518165,-1.5564065672964136,-0.360142153749613,9.734871219753833,0.0,0.0,-0.002181661564992912,28.406234543490942,-13.955702071561362,-60.25
1771535079.3441393,0.0012267380793089923,1.8123388360066834,-9.11307635518165,-1.5564065672964136,-0.360142153749613,9.734871219753833,0.0,0.0,-0.002181661564992912,28.406234543490942,-13.955702071561362,-60.25
1771535079.3759854,0.0012267380793089923,1.8123388360066834,-9.11307635518165,-1.5573010368338536,-0.3604045126901114,9.743277077453044,0.0009949387174156595,0.0004472233721856598,-0.002181661564992912,28.406234543490942,-13.955702071561362,-60.25
1771535079.4110773,0.0012267380793089923,1.8123388360066834,-9.11307635518165,-1.5565248534133387,-0.3636301613694232,9.745525970144966,-0.002537592780061319,-0.002336608833972639,-0.002181661564992912,28.160938088171488,-14.477104889934747,-61.0625
1771535079.4424798,0.0012267380793089923,1.8123388360066834,-9.11307635518165,-1.5546368691117212,-0.36882784626779996,9.743677471402343,0.0009949387174156595,0.0004472233721856598,0.001090830782496456,28.160938088171488,-14.477104889934747,-61.0625
1771535079.474729,0.0012267380793089923,1.8123388360066834,-9.11307635518165,-1.5517008278198114,-0.3678643528647716,9.735757092723574,-0.0005477153452299997,-0.0014421620896013193,0.0,28.160938088171488,-14.477104889934747,-62.25
1771535079.499373,0.0012267380793089923,1.8123388360066834,-9.11307635518165,-1.5517008278198114,-0.3678643528647716,9.735757092723574,-0.0005477153452299997,-0.0014421620896013193,0.0,28.160938088171488,-14.477104889934747,-62.25
1771535079.5232575,0.0012267380793089923,1.8123388360066834,-9.11307635518165,-1.547004039326172,-0.37332526223828566,9.737176392603919,0.0,0.0,-0.004363323129985824,28.160938088171488,-14.477104889934747,-62.25
1771535079.5398185,0.0012267380793089923,1.8123388360066834,-9.11307635518165,-1.5374681096563696,-0.3667430042362959,9.73812092081967,-0.0005477153452299997,-0.0014421620896013193,0.001090830782496456,28.007194017816406,-14.135070153642289,-61.5
1771535079.5693629,0.0012267380793089923,1.8123388360066834,-9.11307635518165,-1.5374681096563696,-0.3667430042362959,9.73812092081967,-0.0005477153452299997,-0.0014421620896013193,0.001090830782496456,28.007194017816406,-14.135070153642289,-61.5
1771535079.5883043,0.0012267380793089923,1.8123388360066834,-9.11307635518165,-1.5433262619250363,-0.3678483566878191,9.745439717210818,-0.0009949387174156595,-0.0004472233721856598,0.001090830782496456,28.007194017816406,-14.135070153642289,-61.5
1771535079.6127632,0.0012267380793089923,1.8123388360066834,-9.11307635518165,-1.549967682631589,-0.36248185292640883,9.743620071038176,0.0,0.0,0.002181661564992912,28.007194017816406,-14.135070153642289,-61.5
1771535079.634515,0.0012267380793089923,1.8123388360066834,-9.11307635518165,-1.5543874739222692,-0.35891050462096524,9.739064005129745,0.0,0.0,-0.001090830782496456,27.494141913377717,-14.36568625917491,-61.875
1771535079.65359,0.0012267380793089923,1.8123388360066834,-9.11307635518165,-1.5543874739222692,-0.35891050462096524,9.739064005129745,0.0,0.0,-0.001090830782496456,27.494141913377717,-14.36568625917491,-61.875
1771535079.6796522,0.0012267380793089923,1.8123388360066834,-9.11307635518165,-1.55290630101296,-0.35821342104761666,9.736031994162273,0.0004472233721856598,-0.0009949387174156595,0.001090830782496456,27.494141913377717,-14.36568625917491,-61.875
1771535079.7019427,0.0012267380793089923,1.8123388360066834,-9.11307635518165,-1.546126659440845,-0.36248018028098805,9.740704448147842,0.0,0.0,0.0,27.494141913377717,-14.36568625917491,-61.875
1771535079.7172766,0.0012267380793089923,1.8123388360066834,-9.11307635518165,-1.5416148837081611,-0.365319660887973,9.743813914080507,-0.001989877434831319,-0.0008944467443713196,0.002181661564992912,27.545961806751166,-13.108965944764911,-61.5
1771535079.72979,0.0012267380793089923,1.8123388360066834,-9.11307635518165,-1.5416148837081611,-0.365319660887973,9.743813914080507,-0.001989877434831319,-0.0008944467443713196,0.002181661564992912,27.545961806751166,-13.108965944764911,-61.5
1771535079.7441201,0.0012267380793089923,1.8123388360066834,-9.11307635518165,-1.5444062849046525,-0.3624786429483438,9.739193005509046,0.0,0.0,-0.001090830782496456,27.545961806751166,-13.108965944764911,-61.5
1771535079.7562811,0.0012267380793089923,1.8123388360066834,-9.11307635518165,-1.552057868765678,-0.35585731668126924,9.73611784247367,0.002090369407875659,0.0033315475513882985,0.0,27.545961806751166,-13.108965944764911,-61.5
1771535079.7688117,0.0012267380793089923,1.8123388360066834,-9.11307635518165,-1.552057868765678,-0.35585731668126924,9.73611784247367,0.002090369407875659,0.0033315475513882985,0.0,27.545961806751166,-13.108965944764911,-61.5
1771535079.7839615,0.0012267380793089923,1.8123388360066834,-9.11307635518165,-1.5602009640865502,-0.3528223409213939,9.737416467532768,0.0014421620896013193,-0.0005477153452299997,-0.001090830782496456,28.559978613846024,-14.29773680785382,-60.5625
1771535079.7961938,0.0012267380793089923,1.8123388360066834,-9.11307635518165,-1.5615057743408496,-0.35995575366155197,9.738280688003005,-0.0005477153452299997,-0.0014421620896013193,-0.002181661564992912,28.559978613846024,-14.29773680785382,-60.5625
1771535079.8081417,0.0012267380793089923,1.8123388360066834,-9.11307635518165,-1.5582597822719948,-0.3738561153601401,9.738855817071974,-0.001989877434831319,-0.0008944467443713196,0.002181661564992912,28.559978613846024,-14.29773680785382,-60.5625
1771535079.8218384,0.0012267380793089923,1.8123388360066834,-9.11307635518165,-1.5582597822719948,-0.3738561153601401,9.738855817071974,-0.001989877434831319,-0.0008944467443713196,0.002181661564992912,28.559978613846024,-14.29773680785382,-60.5625
1771535079.834034,0.0012267380793089923,1.8123388360066834,-9.11307635518165,-1.5530485590751277,-0.3817352078875341,9.739238559042759,0.001989877434831319,0.0008944467443713196,0.001090830782496456,28.252490473135865,-13.613667335268904,-61.5
1771535079.8459494,0.0012267380793089923,1.8123388360066834,-9.11307635518165,-1.5530485590751277,-0.3817352078875341,9.739238559042759,0.001989877434831319,0.0008944467443713196,0.001090830782496456,28.252490473135865,-13.613667335268904,-61.5
1771535079.8580904,0.0012267380793089923,1.8123388360066834,-9.11307635518165,-1.552323434062394,-0.38087655247898144,9.742838381256128,-0.0014421620896013193,0.0005477153452299997,0.0,28.252490473135865,-13.613667335268904,-61.5
1771535079.869933,0.0012267380793089923,1.8123388360066834,-9.11307635518165,-1.5545837572782004,-0.37420302342609607,9.748579134433795,0.001989877434831319,0.0008944467443713196,-0.001090830782496456,28.252490473135865,-13.613667335268904,-61.5
1771535079.881985,0.0012267380793089923,1.8123388360066834,-9.11307635518165,-1.5545837572782004,-0.37420302342609607,9.748579134433795,0.001989877434831319,0.0008944467443713196,-0.001090830782496456,28.252490473135865,-13.613667335268904,-61.5
1771535079.893977,0.0012267380793089923,1.8123388360066834,-9.11307635518165,-1.556087977128855,-0.3697618643896049,9.749054429837798,0.001989877434831319,0.0008944467443713196,0.0,28.289058146800723,-14.76213383684513,-60.6875
1771535079.9058223,0.0012267380793089923,1.8123388360066834,-9.11307635518165,-1.556087977128855,-0.3697618643896049,9.749054429837798,0.001989877434831319,0.0008944467443713196,0.0,28.289058146800723,-14.76213383684513,-60.6875
1771535079.918021,0.0012267380793089923,1.8123388360066834,-9.11307635518165,-1.561511513277182,-0.3651267138324676,9.749370733619765,0.0004472233721856598,-0.0009949387174156595,0.0,28.289058146800723,-14.76213383684513,-60.6875
1771535079.929965,0.0012267380793089923,1.8123388360066834,-9.11307635518165,-1.560698321358072,-0.36372168174406666,9.74958123025332,-0.001989877434831319,-0.0008944467443713196,-0.003272492347489368,28.289058146800723,-14.76213383684513,-60.6875
1771535079.9419546,0.0012267380793089923,1.8123388360066834,-9.11307635518165,-1.560698321358072,-0.36372168174406666,9.74958123025332,-0.001989877434831319,-0.0008944467443713196,-0.003272492347489368,28.289058146800723,-14.76213383684513,-60.6875
1771535079.9541085,0.0012267380793089923,1.8123388360066834,-9.11307635518165,-1.557106099484702,-0.3614152056786708,9.756411536826187,-0.0009949387174156595,-0.0004472233721856598,0.0,27.776006042362035,-14.99274994237775,-62.25
1771535079.965982,0.0012267380793089923,1.8123388360066834,-9.11307635518165,-1.557106099484702,-0.3614152056786708,9.756411536826187,-0.0009949387174156595,-0.0004472233721856598,0.0,27.776006042362035,-14.99274994237775,-62.25
1771535079.979722,0.0012267380793089923,1.8123388360066834,-9.11307635518165,-1.5519726301441177,-0.3659823750924786,9.760957029550907,0.0014421620896013193,-0.0005477153452299997,0.0,27.776006042362035,-14.99274994237775,-62.25
1771535079.9920316,0.0012267380793089923,1.8123388360066834,-9.11307635518165,-1.5485563636425688,-0.3690217753187424,9.753946669060769,0.0009949387174156595,0.0004472233721856598,-0.001090830782496456,27.776006042362035,-14.99274994237775,-62.25
1771535080.003853,0.0012267380793089923,1.8123388360066834,-9.11307635518165,-1.5485563636425688,-0.3690217753187424,9.753946669060769,0.0009949387174156595,0.0004472233721856598,-0.001090830782496456,27.776006042362035,-14.99274994237775,-62.25
1771535080.0156262,0.0012267380793089923,1.8123388360066834,-9.11307635518165,-1.5493339281831369,-0.37241590512279776,9.74928135246544,-0.0004472233721856598,0.0009949387174156595,-0.001090830782496456,28.160938088171488,-14.477104889934747,-61.875
1771535080.0275223,0.0012267380793089923,1.8123388360066834,-9.11307635518165,-1.5434411193050692,-0.36445822840477377,9.74617663638625,-0.001989877434831319,-0.0008944467443713196,0.001090830782496456,28.160938088171488,-14.477104889934747,-61.875
1771535080.0393505,0.0012267380793089923,1.8123388360066834,-9.11307635518165,-1.5434411193050692,-0.36445822840477377,9.74617663638625,-0.001989877434831319,-0.0008944467443713196,0.001090830782496456,28.160938088171488,-14.477104889934747,-61.875
1771535080.0520167,0.0012267380793089923,1.8123388360066834,-9.11307635518165,-1.548672676029158,-0.36327681215940794,9.7441104825175,-0.002984816152246979,-0.0013416701165569794,0.002181661564992912,28.160938088171488,-14.477104889934747,-61.875
1771535080.0638382,0.0012267380793089923,1.8123388360066834,-9.11307635518165,-1.5565767132296746,-0.3608109840160516,9.73604525678366,-0.0014421620896013193,0.0005477153452299997,-0.002181661564992912,28.160938088171488,-14.477104889934747,-61.875
1771535080.075642,0.0012267380793089923,1.8123388360066834,-9.11307635518165,-1.5565767132296746,-0.3608109840160516,9.73604525678366,-0.0014421620896013193,0.0005477153452299997,-0.002181661564992912,28.160938088171488,-14.477104889934747,-61.875
1771535080.0877678,0.0012267380793089923,1.8123388360066834,-9.11307635518165,-1.5618367616927376,-0.3591700029317531,9.730677939152264,-0.0005477153452299997,-0.0014421620896013193,-0.001090830782496456,28.594525209428323,-13.459923264913824,-61.0625
1771535080.1015508,0.0012267380793089923,1.8123388360066834,-9.11307635518165,-1.5609147705453612,-0.35975755718046176,9.737141384347394,-0.001889385461786979,0.0015426540626456594,-0.001090830782496456,28.594525209428323,-13.459923264913824,-61.0625
1771535080.1136146,0.0012267380793089923,1.8123388360066834,-9.11307635518165,-1.5609147705453612,-0.35975755718046176,9.737141384347394,-0.001889385461786979,0.0015426540626456594,-0.001090830782496456,28.594525209428323,-13.459923264913824,-61.0625
1771535080.1256778,0.0012267380793089923,1.8123388360066834,-9.11307635518165,-1.5514562064541915,-0.3635077856282656,9.74144273492334,-0.0005477153452299997,-0.0014421620896013193,-0.001090830782496456,28.594525209428323,-13.459923264913824,-61.0625
1771535080.1376948,0.0012267380793089923,1.8123388360066834,-9.11307635518165,-1.5514562064541915,-0.3635077856282656,9.74144273492334,-0.0005477153452299997,-0.0014421620896013193,-0.001090830782496456,28.594525209428323,-13.459923264913824,-61.0625
1771535080.1500518,0.0012267380793089923,1.8123388360066834,-9.11307635518165,-1.5471494124634992,-0.37789956178454054,9.744305235682397,-0.0004472233721856598,0.0009949387174156595,0.001090830782496456,27.625426789933023,-13.895531464253217,-60.6875
1771535080.163875,0.0012267380793089923,1.8123388360066834,-9.11307635518165,-1.5412322374375833,-0.38610568514406607,9.746210197961322,-0.0014421620896013193,0.0005477153452299997,0.0,27.625426789933023,-13.895531464253217,-60.6875
1771535080.1761198,0.0012267380793089923,1.8123388360066834,-9.11307635518165,-1.5412322374375833,-0.38610568514406607,9.746210197961322,-0.0014421620896013193,0.0005477153452299997,0.0,27.625426789933023,-13.895531464253217,-60.6875
1771535080.18814,0.0012267380793089923,1.8123388360066834,-9.11307635518165,-1.5488822986505228,-0.382105447442424,9.737442593956164,0.0004472233721856598,-0.0009949387174156595,0.0,27.625426789933023,-13.895531464253217,-60.6875
1771535080.2000742,0.0012267380793089923,1.8123388360066834,-9.11307635518165,-1.54924266836645,-0.37364939639080885,9.731607851431287,0.0014421620896013193,-0.0005477153452299997,0.0,28.007194017816406,-14.135070153642289,-61.875
1771535080.2140164,0.0012267380793089923,1.8123388360066834,-9.11307635518165,-1.54924266836645,-0.37364939639080885,9.731607851431287,0.0014421620896013193,-0.0005477153452299997,0.0,28.007194017816406,-14.135070153642289,-61.875
1771535080.225966,0.0012267380793089923,1.8123388360066834,-9.11307635518165,-1.555584593857109,-0.37076487468784236,9.731070007166645,-0.0009949387174156595,-0.0004472233721856598,0.001090830782496456,28.007194017816406,-14.135070153642289,-61.875
1771535080.2378554,0.0012267380793089923,1.8123388360066834,-9.11307635518165,-1.555584593857109,-0.37076487468784236,9.731070007166645,-0.0009949387174156595,-0.0004472233721856598,0.001090830782496456,28.007194017816406,-14.135070153642289,-61.875
1771535080.2515626,0.0012267380793089923,1.8123388360066834,-9.11307635518165,-1.555074413862692,-0.3630513201699817,9.73405718952396,0.0,0.0,-0.001090830782496456,28.007194017816406,-14.135070153642289,-61.875
1771535080.263513,0.0012267380793089923,1.8123388360066834,-9.11307635518165,-1.5577859465106427,-0.3592894787101971,9.732700014306419,-0.003979754869662638,-0.0017888934887426392,-0.001090830782496456,28.289058146800723,-14.76213383684513,-60.25
1771535080.275356,0.0012267380793089923,1.8123388360066834,-9.11307635518165,-1.5577859465106427,-0.3592894787101971,9.732700014306419,-0.003979754869662638,-0.0017888934887426392,-0.001090830782496456,28.289058146800723,-14.76213383684513,-60.25
1771535080.2872772,0.0012267380793089923,1.8123388360066834,-9.11307635518165,-1.5565393894628983,-0.35541457233543106,9.735141941067106,0.0,0.0,-0.001090830782496456,28.289058146800723,-14.76213383684513,-60.25
1771535080.3002245,0.0012267380793089923,1.8123388360066834,-9.11307635518165,-1.5529669338609748,-0.3589379688988676,9.736767016048233,-0.0024371008070169786,0.00010049197304433991,-0.001090830782496456,28.289058146800723,-14.76213383684513,-60.25
1771535080.3121564,0.0012267380793089923,1.8123388360066834,-9.11307635518165,-1.5529669338609748,-0.3589379688988676,9.736767016048233,-0.0024371008070169786,0.00010049197304433991,-0.001090830782496456,28.289058146800723,-14.76213383684513,-60.25
1771535080.3240812,0.0012267380793089923,1.8123388360066834,-9.11307635518165,-1.5475384528296876,-0.3599113070471142,9.737848485294897,0.0009949387174156595,0.0004472233721856598,0.0,27.494141913377717,-14.36568625917491,-61.875
1771535080.3358858,0.0012267380793089923,1.8123388360066834,-9.11307635518165,-1.5475384528296876,-0.3599113070471142,9.737848485294897,0.0009949387174156595,0.0004472233721856598,0.0,27.494141913377717,-14.36568625917491,-61.875
1771535080.3477035,0.0012267380793089923,1.8123388360066834,-9.11307635518165,-1.5469769110786236,-0.36193049561767476,9.73522307929043,0.0009949387174156595,0.0004472233721856598,-0.002181661564992912,27.494141913377717,-14.36568625917491,-61.875
1771535080.3595119,0.0012267380793089923,1.8123388360066834,-9.11307635518165,-1.5479746542219248,-0.36022319132041697,9.733475900922162,0.0009949387174156595,0.0004472233721856598,0.001090830782496456,27.494141913377717,-14.36568625917491,-61.875
1771535080.3733895,0.0012267380793089923,1.8123388360066834,-9.11307635518165,-1.5479746542219248,-0.36022319132041697,9.733475900922162,0.0009949387174156595,0.0004472233721856598,0.001090830782496456,27.494141913377717,-14.36568625917491,-61.875
1771535080.3860216,0.0012267380793089923,1.8123388360066834,-9.11307635518165,-1.5486386411382707,-0.35908699938243066,9.73900339664998,0.0005477153452299997,0.0014421620896013193,0.001090830782496456,28.061034989272418,-14.864629883748517,-61.875
1771535080.3980238,0.0012267380793089923,1.8123388360066834,-9.11307635518165,-1.5486386411382707,-0.35908699938243066,9.73900339664998,0.0005477153452299997,0.0014421620896013193,0.001090830782496456,28.061034989272418,-14.864629883748517,-61.875
1771535080.4120355,0.0012267380793089923,1.8123388360066834,-9.11307635518165,-1.5521315687490305,-0.35970231924559815,9.74268188331067,-0.0009949387174156595,-0.0004472233721856598,0.002181661564992912,28.061034989272418,-14.864629883748517,-61.875
1771535080.4241858,0.0012267380793089923,1.8123388360066834,-9.11307635518165,-1.5541479071318853,-0.352638261364858,9.74847498679929,-0.0004472233721856598,0.0009949387174156595,0.001090830782496456,28.061034989272418,-14.864629883748517,-61.875
1771535080.4359796,0.0012267380793089923,1.8123388360066834,-9.11307635518165,-1.5541479071318853,-0.352638261364858,9.74847498679929,-0.0004472233721856598,0.0009949387174156595,0.001090830782496456,28.061034989272418,-14.864629883748517,-61.875
1771535080.44791,0.0012267380793089923,1.8123388360066834,-9.11307635518165,-1.5585408095368511,-0.34930865266172434,9.74898512075044,-0.002984816152246979,-0.0013416701165569794,-0.001090830782496456,27.34039784302264,-14.023651522882451,-60.5625
1771535080.4599102,0.0012267380793089923,1.8123388360066834,-9.11307635518165,-1.5485049190161082,-0.35960520812810876,9.749324609196362,0.001989877434831319,0.0008944467443713196,0.001090830782496456,27.34039784302264,-14.023651522882451,-60.5625
1771535080.4737675,0.0012267380793089923,1.8123388360066834,-9.11307635518165,-1.5485049190161082,-0.35960520812810876,9.749324609196362,0.001989877434831319,0.0008944467443713196,0.001090830782496456,27.34039784302264,-14.023651522882451,-60.5625
1771535080.4859784,0.0012267380793089923,1.8123388360066834,-9.11307635518165,-1.5479282494530997,-0.36920033658253043,9.749550534964788,-0.0014421620896013193,0.0005477153452299997,0.001090830782496456,27.34039784302264,-14.023651522882451,-60.5625
1771535080.4978986,0.0012267380793089923,1.8123388360066834,-9.11307635518165,-1.5479282494530997,-0.36920033658253043,9.749550534964788,-0.0014421620896013193,0.0005477153452299997,0.001090830782496456,27.34039784302264,-14.023651522882451,-60.5625
1771535080.5118654,0.0012267380793089923,1.8123388360066834,-9.11307635518165,-1.5414423788304357,-0.3728429015727363,9.74970088603992,0.0,0.0,0.0,27.625426789933023,-13.895531464253217,-61.0625
1771535080.5237465,0.0012267380793089923,1.8123388360066834,-9.11307635518165,-1.5398689901945786,-0.3691648844132983,9.74311071958625,-0.0009949387174156595,-0.0004472233721856598,-0.001090830782496456,27.625426789933023,-13.895531464253217,-61.0625
1771535080.5356038,0.0012267380793089923,1.8123388360066834,-9.11307635518165,-1.5398689901945786,-0.3691648844132983,9.74311071958625,-0.0009949387174156595,-0.0004472233721856598,-0.001090830782496456,27.625426789933023,-13.895531464253217,-61.0625
1771535080.5477204,0.0012267380793089923,1.8123388360066834,-9.11307635518165,-1.54019336053912,-0.36366615334468455,9.738725037428315,0.0009949387174156595,0.0004472233721856598,0.0,27.625426789933023,-13.895531464253217,-61.0625
1771535080.5596652,0.0012267380793089923,1.8123388360066834,-9.11307635518165,-1.5404092253799586,-0.36000680924337297,9.73580641494349,0.0005477153452299997,0.0014421620896013193,0.001090830782496456,27.212277784393404,-13.738622575972068,-61.5
1771535080.5736701,0.0012267380793089923,1.8123388360066834,-9.11307635518165,-1.5404092253799586,-0.36000680924337297,9.73580641494349,0.0005477153452299997,0.0014421620896013193,0.001090830782496456,27.212277784393404,-13.738622575972068,-61.5
1771535080.5857549,0.0012267380793089923,1.8123388360066834,-9.11307635518165,-1.54192432392597,-0.35452050488635056,9.737209215990307,0.0009949387174156595,0.0004472233721856598,-0.002181661564992912,27.212277784393404,-13.738622575972068,-61.5
1771535080.5977342,0.0012267380793089923,1.8123388360066834,-9.11307635518165,-1.542932605083581,-0.3508694306227875,9.73479765270933,0.0015426540626456591,0.0018893854617869793,-0.001090830782496456,27.212277784393404,-13.738622575972068,-61.5
1771535080.60953,0.0012267380793089923,1.8123388360066834,-9.11307635518165,-1.542932605083581,-0.3508694306227875,9.73479765270933,0.0015426540626456591,0.0018893854617869793,-0.001090830782496456,27.212277784393404,-13.738622575972068,-61.5
1771535080.6217997,0.0012267380793089923,1.8123388360066834,-9.11307635518165,-1.5442199367778278,-0.3633867742377679,9.736537895992086,-0.0009949387174156595,-0.0004472233721856598,-0.001090830782496456,27.212277784393404,-13.738622575972068,-61.5
1771535080.6337085,0.0012267380793089923,1.8123388360066834,-9.11307635518165,-1.5442199367778278,-0.3633867742377679,9.736537895992086,-0.0009949387174156595,-0.0004472233721856598,-0.001090830782496456,27.212277784393404,-13.738622575972068,-61.5
1771535080.647703,0.0012267380793089923,1.8123388360066834,-9.11307635518165,-1.5450766416399118,-0.37171692658564714,9.73435089674965,0.0009949387174156595,0.0004472233721856598,-0.001090830782496456,28.406234543490942,-13.955702071561362,-61.875
1771535080.6596942,0.0012267380793089923,1.8123388360066834,-9.11307635518165,-1.542595717420457,-0.3758891070134601,9.732895473184191,0.0005477153452299997,0.0014421620896013193,0.002181661564992912,28.406234543490942,-13.955702071561362,-61.875
1771535080.673169,0.0012267380793089923,1.8123388360066834,-9.11307635518165,-1.5406365241426017,-0.37119210010575565,9.731926905059526,0.0038792628966182983,-0.0006482073182743395,0.001090830782496456,28.406234543490942,-13.955702071561362,-61.875
1771535080.6849468,0.0012267380793089923,1.8123388360066834,-9.11307635518165,-1.5406365241426017,-0.37119210010575565,9.731926905059526,0.0038792628966182983,-0.0006482073182743395,0.001090830782496456,28.406234543490942,-13.955702071561362,-61.875
1771535080.697118,0.0012267380793089923,1.8123388360066834,-9.11307635518165,-1.543755197542765,-0.3663866856483338,9.731282333792175,-0.0005477153452299997,-0.0014421620896013193,-0.001090830782496456,27.7791708602881,-14.237566200545675,-60.6875
1771535080.7090178,0.0012267380793089923,1.8123388360066834,-9.11307635518165,-1.543755197542765,-0.3663866856483338,9.731282333792175,-0.0005477153452299997,-0.0014421620896013193,-0.001090830782496456,27.7791708602881,-14.237566200545675,-60.6875
1771535080.7213695,0.0012267380793089923,1.8123388360066834,-9.11307635518165,-1.5502531344936625,-0.3615091271775667,9.730853378814086,-0.002984816152246979,-0.0013416701165569794,0.002181661564992912,27.7791708602881,-14.237566200545675,-60.6875
1771535080.7332485,0.0012267380793089923,1.8123388360066834,-9.11307635518165,-1.5545774389477731,-0.35826316650116935,9.72387769065327,-0.0009949387174156595,-0.0004472233721856598,-0.001090830782496456,27.7791708602881,-14.237566200545675,-60.6875
1771535080.7450712,0.0012267380793089923,1.8123388360066834,-9.11307635518165,-1.5545774389477731,-0.35826316650116935,9.72387769065327,-0.0009949387174156595,-0.0004472233721856598,-0.001090830782496456,27.7791708602881,-14.237566200545675,-60.6875
1771535080.7572384,0.0012267380793089923,1.8123388360066834,-9.11307635518165,-1.5574552152563377,-0.35610301593078364,9.719235448105788,0.0024371008070169786,-0.00010049197304433991,-0.001090830782496456,27.776006042362035,-14.99274994237775,-61.875
1771535080.7693002,0.0012267380793089923,1.8123388360066834,-9.11307635518165,-1.5574552152563377,-0.35610301593078364,9.719235448105788,0.0024371008070169786,-0.00010049197304433991,-0.001090830782496456,27.776006042362035,-14.99274994237775,-61.875
1771535080.78319,0.0012267380793089923,1.8123388360066834,-9.11307635518165,-1.557998900337018,-0.3577165115918064,9.722836310962325,-0.0014421620896013193,0.0005477153452299997,0.002181661564992912,27.776006042362035,-14.99274994237775,-61.875
1771535080.795141,0.0012267380793089923,1.8123388360066834,-9.11307635518165,-1.5569892737790485,-0.36184132666544094,9.725232644969077,-0.0008944467443713196,0.001989877434831319,0.001090830782496456,27.776006042362035,-14.99274994237775,-61.875
1771535080.8068917,0.0012267380793089923,1.8123388360066834,-9.11307635518165,-1.5569892737790485,-0.36184132666544094,9.725232644969077,-0.0008944467443713196,0.001989877434831319,0.001090830782496456,27.776006042362035,-14.99274994237775,-61.875
1771535080.818845,0.0012267380793089923,1.8123388360066834,-9.11307635518165,-1.553266326847836,-0.36321490211393936,9.733517601896406,0.0,0.0,0.002181661564992912,27.7791708602881,-14.237566200545675,-60.5625
1771535080.8312871,0.0012267380793089923,1.8123388360066834,-9.11307635518165,-1.5491091384238065,-0.3597065065901185,9.739031148182509,0.0009949387174156595,0.0004472233721856598,-0.002181661564992912,27.7791708602881,-14.237566200545675,-60.5625
1771535080.8441057,0.0012267380793089923,1.8123388360066834,-9.11307635518165,-1.5491091384238065,-0.3597065065901185,9.739031148182509,0.0009949387174156595,0.0004472233721856598,-0.002181661564992912,27.7791708602881,-14.237566200545675,-60.5625
1771535080.8560376,0.0012267380793089923,1.8123388360066834,-9.11307635518165,-1.5493936277016038,-0.3587431514661636,9.739355239938243,0.0014421620896013193,-0.0005477153452299997,-0.001090830782496456,27.7791708602881,-14.237566200545675,-60.5625
1771535080.8678606,0.0012267380793089923,1.8123388360066834,-9.11307635518165,-1.5493936277016038,-0.3587431514661636,9.739355239938243,0.0014421620896013193,-0.0005477153452299997,-0.001090830782496456,27.7791708602881,-14.237566200545675,-60.5625
1771535080.8801167,0.0012267380793089923,1.8123388360066834,-9.11307635518165,-1.5495829521380247,-0.35810204939255336,9.739570919381343,-0.0004472233721856598,0.0009949387174156595,0.001090830782496456,28.240403071353345,-15.263670409423053,-62.25
1771535080.8934803,0.0012267380793089923,1.8123388360066834,-9.11307635518165,-1.5541314400765236,-0.35599579429479566,9.743059563348748,-0.0009949387174156595,-0.0004472233721856598,0.0,28.240403071353345,-15.263670409423053,-62.25
1771535080.905708,0.0012267380793089923,1.8123388360066834,-9.11307635518165,-1.5541314400765236,-0.35599579429479566,9.743059563348748,-0.0009949387174156595,-0.0004472233721856598,0.0,28.240403071353345,-15.263670409423053,-62.25
1771535080.9176724,0.0012267380793089923,1.8123388360066834,-9.11307635518165,-1.557158407989655,-0.35459410505564903,9.745381216938348,0.0,0.0,-0.002181661564992912,28.240403071353345,-15.263670409423053,-62.25
1771535080.9295135,0.0012267380793089923,1.8123388360066834,-9.11307635518165,-1.5475849462288864,-0.36312261765389375,9.746926251467658,0.0,0.0,0.001090830782496456,27.725329888832093,-13.508006470439447,-60.6875
1771535080.9434242,0.0012267380793089923,1.8123388360066834,-9.11307635518165,-1.5475849462288864,-0.36312261765389375,9.746926251467658,0.0,0.0,0.001090830782496456,27.725329888832093,-13.508006470439447,-60.6875
1771535080.9554358,0.0012267380793089923,1.8123388360066834,-9.11307635518165,-1.54121391436967,-0.3687982475182976,9.747954454687747,0.0009949387174156595,0.0004472233721856598,0.001090830782496456,27.725329888832093,-13.508006470439447,-60.6875
1771535080.9673834,0.0012267380793089923,1.8123388360066834,-9.11307635518165,-1.54121391436967,-0.3687982475182976,9.747954454687747,0.0009949387174156595,0.0004472233721856598,0.001090830782496456,27.725329888832093,-13.508006470439447,-60.6875
1771535080.9813592,0.0012267380793089923,1.8123388360066834,-9.11307635518165,-1.539716949648054,-0.36647321232181557,9.748638712444935,-0.0005477153452299997,-0.0014421620896013193,0.002181661564992912,27.725329888832093,-13.508006470439447,-60.6875
1771535080.9934742,0.0012267380793089923,1.8123388360066834,-9.11307635518165,-1.541771788083162,-0.36629737027670356,9.749094078338683,-0.0009949387174156595,-0.0004472233721856598,-0.001090830782496456,27.494141913377717,-14.36568625917491,-61.0625
1771535081.0053566,0.0012267380793089923,1.8123388360066834,-9.11307635518165,-1.541771788083162,-0.36629737027670356,9.749094078338683,-0.0009949387174156595,-0.0004472233721856598,-0.001090830782496456,27.494141913377717,-14.36568625917491,-61.0625
1771535081.0174868,0.0012267380793089923,1.8123388360066834,-9.11307635518165,-1.5400882083725254,-0.3648089064541641,9.746052007546883,0.0015426540626456591,0.0018893854617869793,-0.002181661564992912,27.494141913377717,-14.36568625917491,-61.0625
1771535081.0293937,0.0012267380793089923,1.8123388360066834,-9.11307635518165,-1.5478127941638213,-0.3604591327487952,9.740682431709777,-0.002984816152246979,-0.0013416701165569794,0.002181661564992912,27.494141913377717,-14.36568625917491,-61.0625
1771535081.0413678,0.0012267380793089923,1.8123388360066834,-9.11307635518165,-1.5478127941638213,-0.3604591327487952,9.740682431709777,-0.002984816152246979,-0.0013416701165569794,0.002181661564992912,27.494141913377717,-14.36568625917491,-61.0625
1771535081.0536633,0.0012267380793089923,1.8123388360066834,-9.11307635518165,-1.5512738108893018,-0.3531419122970749,9.737109038972276,0.0015426540626456591,0.0018893854617869793,0.001090830782496456,27.494141913377717,-14.36568625917491,-60.25
1771535081.0656803,0.0012267380793089923,1.8123388360066834,-9.11307635518165,-1.553577078858019,-0.3482723838251632,9.731385874315562,0.0014421620896013193,-0.0005477153452299997,0.0,27.494141913377717,-14.36568625917491,-60.25
1771535081.077524,0.0012267380793089923,1.8123388360066834,-9.11307635518165,-1.553577078858019,-0.3482723838251632,9.731385874315562,0.0014421620896013193,-0.0005477153452299997,0.0,27.494141913377717,-14.36568625917491,-60.25
1771535081.08954,0.0012267380793089923,1.8123388360066834,-9.11307635518165,-1.5496241063388037,-0.3572359739639091,9.737612507290414,-0.0014421620896013193,0.0005477153452299997,0.0,27.494141913377717,-14.36568625917491,-60.25
1771535081.1015563,0.0012267380793089923,1.8123388360066834,-9.11307635518165,-1.5496241063388037,-0.3572359739639091,9.737612507290414,-0.0014421620896013193,0.0005477153452299997,0.0,27.494141913377717,-14.36568625917491,-60.25
1771535081.1154008,0.0012267380793089923,1.8123388360066834,-9.11307635518165,-1.5500444990200137,-0.36457258597718384,9.74175626197913,-0.0014421620896013193,0.0005477153452299997,0.0,27.6478859837328,-14.707720995467367,-61.5
1771535081.127378,0.0012267380793089923,1.8123388360066834,-9.11307635518165,-1.5503242656532652,-0.369455019316692,9.7445138844357,0.0005477153452299997,0.0014421620896013193,-0.001090830782496456,27.6478859837328,-14.707720995467367,-61.5
1771535081.139374,0.0012267380793089923,1.8123388360066834,-9.11307635518165,-1.5503242656532652,-0.369455019316692,9.7445138844357,0.0005477153452299997,0.0014421620896013193,-0.001090830782496456,27.6478859837328,-14.707720995467367,-61.5
1771535081.153052,0.0012267380793089923,1.8123388360066834,-9.11307635518165,-1.5474593954873443,-0.3713327812579787,9.743003939668565,0.0024371008070169786,-0.00010049197304433991,0.0,27.6478859837328,-14.707720995467367,-61.5
1771535081.1658254,0.0012267380793089923,1.8123388360066834,-9.11307635518165,-1.5474593954873443,-0.3713327812579787,9.743003939668565,0.0024371008070169786,-0.00010049197304433991,0.0,27.6478859837328,-14.707720995467367,-61.5
1771535081.182181,0.0012267380793089923,1.8123388360066834,-9.11307635518165,-1.5482957422062245,-0.36648030738362675,9.741999088293225,0.0009949387174156595,0.0004472233721856598,0.0,28.289058146800723,-14.76213383684513,-61.5
1771535081.1951969,0.0012267380793089923,1.8123388360066834,-9.11307635518165,-1.5488523216050343,-0.36325104022593047,9.741330370927862,-0.0028843241792026386,0.0010954306904599994,0.13962634015954636,28.289058146800723,-14.76213383684513,-61.5
1771535081.2071285,0.0012267380793089923,1.8123388360066834,-9.11307635518165,-1.549222718977543,-0.3611019990057614,9.737540235283957,-0.0009949387174156595,-0.0004472233721856598,0.001090830782496456,28.289058146800723,-14.76213383684513,-61.5
1771535081.2189536,0.0012267380793089923,1.8123388360066834,-9.11307635518165,-1.549222718977543,-0.3611019990057614,9.737540235283957,-0.0009949387174156595,-0.0004472233721856598,0.001090830782496456,28.289058146800723,-14.76213383684513,-61.5
1771535081.2313433,0.0012267380793089923,1.8123388360066834,-9.11307635518165,-1.5494692142913375,-0.3596718360801022,9.735017942351526,-0.0009949387174156595,-0.0004472233721856598,0.0,27.7791708602881,-14.237566200545675,-61.0625
1771535081.2432666,0.0012267380793089923,1.8123388360066834,-9.11307635518165,-1.548261811263333,-0.36177113036419417,9.733339384580852,-0.0014421620896013193,0.0005477153452299997,0.001090830782496456,27.7791708602881,-14.237566200545675,-61.0625
1771535081.2566803,0.0012267380793089923,1.8123388360066834,-9.11307635518165,-1.548261811263333,-0.36177113036419417,9.733339384580852,-0.0014421620896013193,0.0005477153452299997,0.001090830782496456,27.7791708602881,-14.237566200545675,-61.0625
1771535081.2688534,0.0012267380793089923,1.8123388360066834,-9.11307635518165,-1.5474582980357714,-0.3631681872596037,9.725532099720548,0.0014421620896013193,-0.0005477153452299997,-0.002181661564992912,27.7791708602881,-14.237566200545675,-61.0625
1771535081.2807438,0.0012267380793089923,1.8123388360066834,-9.11307635518165,-1.5455521260528582,-0.3671489647525021,9.72702666227374,-0.0009949387174156595,-0.0004472233721856598,0.0,28.160938088171488,-14.477104889934747,-61.875
1771535081.294623,0.0012267380793089923,1.8123388360066834,-9.11307635518165,-1.5455521260528582,-0.3671489647525021,9.72702666227374,-0.0009949387174156595,-0.0004472233721856598,0.0,28.160938088171488,-14.477104889934747,-61.875
1771535081.3064578,0.0012267380793089923,1.8123388360066834,-9.11307635518165,-1.5442835898915659,-0.36979812770582776,9.728021276957532,0.0,0.0,-0.001090830782496456,28.160938088171488,-14.477104889934747,-61.875
1771535081.318248,0.0012267380793089923,1.8123388360066834,-9.11307635518165,-1.5442835898915659,-0.36979812770582776,9.728021276957532,0.0,0.0,-0.001090830782496456,28.160938088171488,-14.477104889934747,-61.875
1771535081.3303719,0.0012267380793089923,1.8123388360066834,-9.11307635518165,-1.544810836152505,-0.36851006432302524,9.728683181919022,0.0015426540626456591,0.0018893854617869793,0.001090830782496456,28.160938088171488,-14.477104889934747,-61.875
1771535081.342349,0.0012267380793089923,1.8123388360066834,-9.11307635518165,-1.5482127643845849,-0.3690243154361828,9.72912367227693,0.0,0.0,0.0,28.007194017816406,-14.135070153642289,-60.6875
1771535081.356046,0.0012267380793089923,1.8123388360066834,-9.11307635518165,-1.5482127643845849,-0.3690243154361828,9.72912367227693,0.0,0.0,0.0,28.007194017816406,-14.135070153642289,-60.6875
1771535081.368004,0.0012267380793089923,1.8123388360066834,-9.11307635518165,-1.5504767096210057,-0.3693665438074279,9.7260717019822,-0.001889385461786979,0.0015426540626456594,0.002181661564992912,28.007194017816406,-14.135070153642289,-60.6875
1771535081.3803627,0.0012267380793089923,1.8123388360066834,-9.11307635518165,-1.5489322881507668,-0.36822285005974814,9.734075984965756,0.0004472233721856598,-0.0009949387174156595,0.0,28.007194017816406,-14.135070153642289,-60.6875
1771535081.392448,0.0012267380793089923,1.8123388360066834,-9.11307635518165,-1.5489322881507668,-0.36822285005974814,9.734075984965756,0.0004472233721856598,-0.0009949387174156595,0.0,28.007194017816406,-14.135070153642289,-60.6875
1771535081.4047177,0.0012267380793089923,1.8123388360066834,-9.11307635518165,-1.547904492914641,-0.3674617346465636,9.739402745877614,-0.0004472233721856598,0.0009949387174156595,0.002181661564992912,28.007194017816406,-14.135070153642289,-60.6875
1771535081.4165702,0.0012267380793089923,1.8123388360066834,-9.11307635518165,-1.550271558401376,-0.3683266637471075,9.742947645760637,-0.001989877434831319,-0.0008944467443713196,-0.002181661564992912,27.497306731303787,-13.610502517342834,-61.5
1771535081.430311,0.0012267380793089923,1.8123388360066834,-9.11307635518165,-1.550271558401376,-0.3683266637471075,9.742947645760637,-0.001989877434831319,-0.0008944467443713196,-0.002181661564992912,27.497306731303787,-13.610502517342834,-61.5
1771535081.442651,0.0012267380793089923,1.8123388360066834,-9.11307635518165,-1.551846814040944,-0.3689022644016282,9.738616513619023,0.001989877434831319,0.0008944467443713196,0.002181661564992912,27.497306731303787,-13.610502517342834,-61.5
1771535081.454438,0.0012267380793089923,1.8123388360066834,-9.11307635518165,-1.552895129072318,-0.3692853202073312,9.735734193560695,0.0005477153452299997,0.0014421620896013193,0.0,27.497306731303787,-13.610502517342834,-61.5
1771535081.4687104,0.0012267380793089923,1.8123388360066834,-9.11307635518165,-1.552895129072318,-0.3692853202073312,9.735734193560695,0.0005477153452299997,0.0014421620896013193,0.0,27.497306731303787,-13.610502517342834,-61.5
1771535081.4809732,0.0012267380793089923,1.8123388360066834,-9.11307635518165,-1.5580152656562047,-0.36786063073766323,9.733816041759503,0.0009949387174156595,0.0004472233721856598,-0.003272492347489368,27.625426789933023,-13.895531464253217,-60.6875
1771535081.4930081,0.0012267380793089923,1.8123388360066834,-9.11307635518165,-1.561422659357108,-0.3669125158104233,9.73588464487029,0.0015426540626456591,0.0018893854617869793,-0.001090830782496456,27.625426789933023,-13.895531464253217,-60.6875
1771535081.5066257,0.0012267380793089923,1.8123388360066834,-9.11307635518165,-1.561422659357108,-0.3669125158104233,9.73588464487029,0.0015426540626456591,0.0018893854617869793,-0.001090830782496456,27.625426789933023,-13.895531464253217,-60.6875
1771535081.5186386,0.0012267380793089923,1.8123388360066834,-9.11307635518165,-1.5606391900668262,-0.364910113011681,9.733916165425388,-0.0004472233721856598,0.0009949387174156595,0.003272492347489368,27.625426789933023,-13.895531464253217,-60.6875
1771535081.5304556,0.0012267380793089923,1.8123388360066834,-9.11307635518165,-1.5606391900668262,-0.364910113011681,9.733916165425388,-0.0004472233721856598,0.0009949387174156595,0.003272492347489368,27.625426789933023,-13.895531464253217,-60.6875
1771535081.5429456,0.0012267380793089923,1.8123388360066834,-9.11307635518165,-1.5570667482709175,-0.362206093411621,9.73595127605148,0.0009949387174156595,0.0004472233721856598,0.001090830782496456,28.68809867247526,-14.582765754764203,-61.5
1771535081.554867,0.0012267380793089923,1.8123388360066834,-9.11307635518165,-1.5560607710683318,-0.35735554683850773,9.73730561943947,0.0005477153452299997,0.0014421620896013193,-0.002181661564992912,28.68809867247526,-14.582765754764203,-61.5
1771535081.5669742,0.0012267380793089923,1.8123388360066834,-9.11307635518165,-1.5560607710683318,-0.35735554683850773,9.73730561943947,0.0005477153452299997,0.0014421620896013193,-0.002181661564992912,28.68809867247526,-14.582765754764203,-61.5
1771535081.5791237,0.0012267380793089923,1.8123388360066834,-9.11307635518165,-1.5553913044775125,-0.3541275622782563,9.73820691983517,0.0015426540626456591,0.0018893854617869793,0.001090830782496456,28.68809867247526,-14.582765754764203,-61.5
1771535081.5909667,0.0012267380793089923,1.8123388360066834,-9.11307635518165,-1.5553913044775125,-0.3541275622782563,9.73820691983517,0.0015426540626456591,0.0018893854617869793,0.001090830782496456,28.68809867247526,-14.582765754764203,-61.5
1771535081.6032925,0.0012267380793089923,1.8123388360066834,-9.11307635518165,-1.5494600103165466,-0.3641835815529651,9.738806725180323,0.001989877434831319,0.0008944467443713196,-0.001090830782496456,27.545961806751166,-13.108965944764911,-61.0625
1771535081.6151035,0.0012267380793089923,1.8123388360066834,-9.11307635518165,-1.545512800309321,-0.37087575004718815,9.742551000644578,0.002984816152246979,0.0013416701165569794,-0.002181661564992912,27.545961806751166,-13.108965944764911,-61.0625
1771535081.626886,0.0012267380793089923,1.8123388360066834,-9.11307635518165,-1.545512800309321,-0.37087575004718815,9.742551000644578,0.002984816152246979,0.0013416701165569794,-0.002181661564992912,27.545961806751166,-13.108965944764911,-61.0625
1771535081.6390207,0.0012267380793089923,1.8123388360066834,-9.11307635518165,-1.5486799136894924,-0.3705986528591722,9.745042774139742,0.0004472233721856598,-0.0009949387174156595,0.0,27.545961806751166,-13.108965944764911,-61.0625
1771535081.651542,0.0012267380793089923,1.8123388360066834,-9.11307635518165,-1.5486799136894924,-0.3705986528591722,9.745042774139742,0.0004472233721856598,-0.0009949387174156595,0.0,27.545961806751166,-13.108965944764911,-61.0625
1771535081.6654031,0.0012267380793089923,1.8123388360066834,-9.11307635518165,-1.5491079834356725,-0.36599175313497256,9.74670102156584,0.0,0.0,0.0,27.6478859837328,-14.707720995467367,-61.5
1771535081.6775906,-54.88568137734722,-27.065340889982263,130.4026363893199,-1.5510724678992525,-0.36734840747191305,9.74780456670407,0.0005477153452299997,0.0014421620896013193,0.0,27.6478859837328,-14.707720995467367,-61.5
1771535081.6894486,-54.88568137734722,-27.065340889982263,130.4026363893199,-1.5510724678992525,-0.36734840747191305,9.74780456670407,0.0005477153452299997,0.0014421620896013193,0.0,27.6478859837328,-14.707720995467367,-61.5
1771535081.7017815,0.0012267380793089923,1.8123388360066834,-9.11307635518165,-1.550700201535686,-0.3638287511373716,9.748538963666157,-0.0024371008070169786,0.00010049197304433991,0.001090830782496456,27.6478859837328,-14.707720995467367,-61.5
1771535081.7136722,0.0012267380793089923,1.8123388360066834,-9.11307635518165,-1.550700201535686,-0.3638287511373716,9.748538963666157,-0.0024371008070169786,0.00010049197304433991,0.001090830782496456,27.6478859837328,-14.707720995467367,-61.5
1771535081.7274325,0.0012267380793089923,1.8123388360066834,-9.11307635518165,-1.5504524624292202,-0.3614864591638717,9.749027696640672,-0.0024371008070169786,0.00010049197304433991,-0.002181661564992912,27.932914930643182,-14.579600936838133,-60.6875
1771535081.7396536,0.0012267380793089923,1.8123388360066834,-9.11307635518165,-1.5502875948212944,-0.3599276900206233,9.74266271956107,0.002984816152246979,0.0013416701165569794,0.001090830782496456,27.932914930643182,-14.579600936838133,-60.6875
1771535081.752391,0.0012267380793089923,1.8123388360066834,-9.11307635518165,-1.5474349914583079,-0.3649924500386867,9.738426898416046,-0.0009949387174156595,-0.0004472233721856598,0.001090830782496456,27.932914930643182,-14.579600936838133,-60.6875
1771535081.7666352,0.0012267380793089923,1.8123388360066834,-9.11307635518165,-1.5474349914583079,-0.3649924500386867,9.738426898416046,-0.0009949387174156595,-0.0004472233721856598,0.001090830782496456,27.932914930643182,-14.579600936838133,-60.6875
1771535081.7784605,0.0012267380793089923,1.8123388360066834,-9.11307635518165,-1.5455366157859078,-0.36836299125363137,9.735608006761256,0.0014421620896013193,-0.0005477153452299997,0.0,27.725329888832093,-13.508006470439447,-61.0625
1771535081.7902603,0.0012267380793089923,1.8123388360066834,-9.11307635518165,-1.5455366157859078,-0.36836299125363137,9.735608006761256,0.0014421620896013193,-0.0005477153452299997,0.0,27.725329888832093,-13.508006470439447,-61.0625
1771535081.8025086,0.0012267380793089923,1.8123388360066834,-9.11307635518165,-1.5439651020586236,-0.3631325024046598,9.733732065854076,-0.0005477153452299997,-0.0014421620896013193,-0.001090830782496456,27.725329888832093,-13.508006470439447,-61.0625
1771535081.8153467,0.0012267380793089923,1.8123388360066834,-9.11307635518165,-1.5429192772280746,-0.35965167050405805,9.73917387155062,0.0004472233721856598,-0.0009949387174156595,-0.002181661564992912,27.725329888832093,-13.508006470439447,-61.0625
1771535081.8272607,0.0012267380793089923,1.8123388360066834,-9.11307635518165,-1.5429192772280746,-0.35965167050405805,9.73917387155062,0.0004472233721856598,-0.0009949387174156595,-0.002181661564992912,27.725329888832093,-13.508006470439447,-61.0625
1771535081.8394217,0.0012267380793089923,1.8123388360066834,-9.11307635518165,-1.540851849580171,-0.3603862674927991,9.742795332452715,0.001989877434831319,0.0008944467443713196,-0.002181661564992912,28.406234543490942,-13.955702071561362,-61.0625
1771535081.8512926,0.0012267380793089923,1.8123388360066834,-9.11307635518165,-1.540851849580171,-0.3603862674927991,9.742795332452715,0.001989877434831319,0.0008944467443713196,-0.002181661564992912,28.406234543490942,-13.955702071561362,-61.0625
1771535081.8650649,0.0012267380793089923,1.8123388360066834,-9.11307635518165,-1.5425270513103229,-0.36224657648862213,9.745205374228691,0.0009949387174156595,0.0004472233721856598,0.0,28.406234543490942,-13.955702071561362,-61.0625
1771535081.8770897,0.0012267380793089923,1.8123388360066834,-9.11307635518165,-1.5422704364427076,-0.3665356430794807,9.750154341815993,-0.0004472233721856598,0.0009949387174156595,0.001090830782496456,28.406234543490942,-13.955702071561362,-61.0625
1771535081.888963,0.0012267380793089923,1.8123388360066834,-9.11307635518165,-1.5422704364427076,-0.3665356430794807,9.750154341815993,-0.0004472233721856598,0.0009949387174156595,0.001090830782496456,28.406234543490942,-13.955702071561362,-61.0625
1771535081.9022,0.0012267380793089923,1.8123388360066834,-9.11307635518165,-1.5451507138500369,-0.37076141188948586,9.753447824461752,-0.0014421620896013193,0.0005477153452299997,0.0,27.85344994746133,-13.79303541734983,-60.6875
1771535081.9156666,0.0012267380793089923,1.8123388360066834,-9.11307635518165,-1.5470675062898076,-0.37357361382761367,9.745604265249934,-0.0034320395244326384,-0.00034673139914132,-0.002181661564992912,27.85344994746133,-13.79303541734983,-60.6875
1771535081.927895,0.0012267380793089923,1.8123388360066834,-9.11307635518165,-1.5470675062898076,-0.37357361382761367,9.745604265249934,-0.0034320395244326384,-0.00034673139914132,-0.002181661564992912,27.85344994746133,-13.79303541734983,-60.6875
1771535081.9399898,0.0012267380793089923,1.8123388360066834,-9.11307635518165,-1.5510859960581047,-0.3693429993327809,9.740384464212767,-0.0009949387174156595,-0.0004472233721856598,0.001090830782496456,27.85344994746133,-13.79303541734983,-60.6875
1771535081.9521034,0.0012267380793089923,1.8123388360066834,-9.11307635518165,-1.5507092043742827,-0.36515612973972816,9.73691074493153,0.0,0.0,0.001090830782496456,27.09510138770318,-14.545054341255836,-61.5
1771535081.9660661,0.0012267380793089923,1.8123388360066834,-9.11307635518165,-1.5507092043742827,-0.36515612973972816,9.73691074493153,0.0,0.0,0.001090830782496456,27.09510138770318,-14.545054341255836,-61.5
1771535081.978109,0.0012267380793089923,1.8123388360066834,-9.11307635518165,-1.5490870108119361,-0.36542086653110095,9.731253911846535,-0.0009949387174156595,-0.0004472233721856598,-0.001090830782496456,27.09510138770318,-14.545054341255836,-61.5
1771535081.9898872,0.0012267380793089923,1.8123388360066834,-9.11307635518165,-1.5490870108119361,-0.36542086653110095,9.731253911846535,-0.0009949387174156595,-0.0004472233721856598,-0.001090830782496456,27.09510138770318,-14.545054341255836,-61.5
1771535082.0020022,0.0012267380793089923,1.8123388360066834,-9.11307635518165,-1.5480074591172839,-0.3655970459084558,9.727489352619436,0.0005477153452299997,0.0014421620896013193,0.002181661564992912,27.09510138770318,-14.545054341255836,-61.5
1771535082.013823,0.0012267380793089923,1.8123388360066834,-9.11307635518165,-1.545609420694526,-0.3612917966750794,9.735019415628642,0.0,0.0,0.002181661564992912,27.625426789933023,-13.895531464253217,-61.0625
1771535082.026714,0.0012267380793089923,1.8123388360066834,-9.11307635518165,-1.545609420694526,-0.3612917966750794,9.735019415628642,0.0,0.0,0.002181661564992912,27.625426789933023,-13.895531464253217,-61.0625
1771535082.0387106,0.0012267380793089923,1.8123388360066834,-9.11307635518165,-1.5470646046471763,-0.35979814430885443,9.740030588444954,-0.0004472233721856598,0.0009949387174156595,-0.002181661564992912,27.625426789933023,-13.895531464253217,-61.0625
1771535082.0505075,0.0012267380793089923,1.8123388360066834,-9.11307635518165,-1.549712622141545,-0.3632266299852754,9.740020356268422,0.0024371008070169786,-0.00010049197304433991,0.001090830782496456,27.625426789933023,-13.895531464253217,-61.0625
1771535082.0624702,0.0012267380793089923,1.8123388360066834,-9.11307635518165,-1.549712622141545,-0.3632266299852754,9.740020356268422,0.0024371008070169786,-0.00010049197304433991,0.001090830782496456,27.625426789933023,-13.895531464253217,-61.0625
1771535082.0746522,0.0012267380793089923,1.8123388360066834,-9.11307635518165,-1.5487319623921498,-0.371610352374542,9.74001354686924,0.0014421620896013193,-0.0005477153452299997,0.0,27.625426789933023,-13.895531464253217,-61.0625
1771535082.0868094,0.0012267380793089923,1.8123388360066834,-9.11307635518165,-1.5480793442836145,-0.37718962597228345,9.740009015290152,0.0,0.0,0.001090830782496456,27.494141913377717,-14.36568625917491,-61.875
1771535082.0985255,0.0012267380793089923,1.8123388360066834,-9.11307635518165,-1.5480793442836145,-0.37718962597228345,9.740009015290152,0.0,0.0,0.001090830782496456,27.494141913377717,-14.36568625917491,-61.875
1771535082.1103618,0.0012267380793089923,1.8123388360066834,-9.11307635518165,-1.549016477128408,-0.3778515184918591,9.743351111282209,0.0009949387174156595,0.0004472233721856598,0.002181661564992912,27.494141913377717,-14.36568625917491,-61.875
1771535082.1224174,0.0012267380793089923,1.8123388360066834,-9.11307635518165,-1.549016477128408,-0.3778515184918591,9.743351111282209,0.0009949387174156595,0.0004472233721856598,0.002181661564992912,27.494141913377717,-14.36568625917491,-61.875
1771535082.13438,0.0012267380793089923,1.8123388360066834,-9.11307635518165,-1.5493319626446107,-0.370818454193708,9.748920350538583,0.002537592780061319,0.002336608833972639,-0.001090830782496456,27.494141913377717,-14.36568625917491,-61.875
1771535082.1464417,0.0012267380793089923,1.8123388360066834,-9.11307635518165,-1.5509133576372416,-0.363086976732613,9.752626617051222,0.0015426540626456591,0.0018893854617869793,0.001090830782496456,28.160938088171488,-14.477104889934747,-60.6875
1771535082.1633222,0.0012267380793089923,1.8123388360066834,-9.11307635518165,-1.5509133576372416,-0.363086976732613,9.752626617051222,0.0015426540626456591,0.0018893854617869793,0.001090830782496456,28.160938088171488,-14.477104889934747,-60.6875
1771535082.1761918,0.0012267380793089923,1.8123388360066834,-9.11307635518165,-1.5533372012452995,-0.3548907131133649,9.745057760891715,0.0,0.0,-0.001090830782496456,28.160938088171488,-14.477104889934747,-60.6875
1771535082.1881309,0.0012267380793089923,1.8123388360066834,-9.11307635518165,-1.554950242090355,-0.34943619123301906,9.740020771667226,-0.0004472233721856598,0.0009949387174156595,-0.001090830782496456,28.160938088171488,-14.477104889934747,-60.6875
1771535082.200037,0.0012267380793089923,1.8123388360066834,-9.11307635518165,-1.554950242090355,-0.34943619123301906,9.740020771667226,-0.0004472233721856598,0.0009949387174156595,-0.001090830782496456,28.160938088171488,-14.477104889934747,-60.6875
1771535082.2124887,0.0012267380793089923,1.8123388360066834,-9.11307635518165,-1.5560237027538926,-0.3458062678526508,9.736668711605185,-0.0005477153452299997,-0.0014421620896013193,0.0,28.559978613846024,-14.29773680785382,-61.0625
1771535082.2242522,0.0012267380793089923,1.8123388360066834,-9.11307635518165,-1.5560237027538926,-0.3458062678526508,9.736668711605185,-0.0005477153452299997,-0.0014421620896013193,0.0,28.559978613846024,-14.29773680785382,-61.0625
1771535082.238004,0.0012267380793089923,1.8123388360066834,-9.11307635518165,-1.5498808643051258,-0.3586458530676741,9.73778306478618,0.001989877434831319,0.0008944467443713196,0.001090830782496456,28.559978613846024,-14.29773680785382,-61.0625
1771535082.2499795,0.0012267380793089923,1.8123388360066834,-9.11307635518165,-1.542741822202322,-0.3658190106949055,9.74521487779463,-0.0009949387174156595,-0.0004472233721856598,0.002181661564992912,28.559978613846024,-14.29773680785382,-61.0625
1771535082.2619677,0.0012267380793089923,1.8123388360066834,-9.11307635518165,-1.542741822202322,-0.3658190106949055,9.74521487779463,-0.0009949387174156595,-0.0004472233721856598,0.002181661564992912,28.559978613846024,-14.29773680785382,-61.0625
1771535082.2740664,0.0012267380793089923,1.8123388360066834,-9.11307635518165,-1.5379908694312314,-0.370592666966407,9.750160666332963,0.0015426540626456591,0.0018893854617869793,-0.001090830782496456,27.494141913377717,-14.36568625917491,-61.875
1771535082.2861257,0.0012267380793089923,1.8123388360066834,-9.11307635518165,-1.5375720492452944,-0.36766737841955377,9.750106921649827,0.0005477153452299997,0.0014421620896013193,0.0,27.494141913377717,-14.36568625917491,-61.875
1771535082.2980425,0.0012267380793089923,1.8123388360066834,-9.11307635518165,-1.5375720492452944,-0.36766737841955377,9.750106921649827,0.0005477153452299997,0.0014421620896013193,0.0,27.494141913377717,-14.36568625917491,-61.875
1771535082.310082,0.0012267380793089923,1.8123388360066834,-9.11307635518165,-1.5403443808252328,-0.36709207447503905,9.743380931748929,0.002984816152246979,0.0013416701165569794,0.002181661564992912,27.494141913377717,-14.36568625917491,-61.875
1771535082.322047,0.0012267380793089923,1.8123388360066834,-9.11307635518165,-1.5403443808252328,-0.36709207447503905,9.743380931748929,0.002984816152246979,0.0013416701165569794,0.002181661564992912,27.494141913377717,-14.36568625917491,-61.875
1771535082.3339949,0.0012267380793089923,1.8123388360066834,-9.11307635518165,-1.544932222334313,-0.3606071126562277,9.735559748896792,0.0,0.0,0.001090830782496456,28.061034989272418,-14.864629883748517,-62.25
1771535082.346873,0.0012267380793089923,1.8123388360066834,-9.11307635518165,-1.5510364313442093,-0.35766288591338075,9.73369995078435,-0.0004472233721856598,0.0009949387174156595,0.001090830782496456,28.061034989272418,-14.864629883748517,-62.25
1771535082.358885,0.0012267380793089923,1.8123388360066834,-9.11307635518165,-1.5510364313442093,-0.35766288591338075,9.73369995078435,-0.0004472233721856598,0.0009949387174156595,0.001090830782496456,28.061034989272418,-14.864629883748517,-62.25
1771535082.370903,0.0012267380793089923,1.8123388360066834,-9.11307635518165,-1.552355828440209,-0.3618056393754867,9.729117164208507,-0.001989877434831319,-0.0008944467443713196,0.0,28.061034989272418,-14.864629883748517,-62.25
1771535082.3829257,0.0012267380793089923,1.8123388360066834,-9.11307635518165,-1.552355828440209,-0.3618056393754867,9.729117164208507,-0.001989877434831319,-0.0008944467443713196,0.0,28.061034989272418,-14.864629883748517,-62.25
1771535082.396622,0.0012267380793089923,1.8123388360066834,-9.11307635518165,-1.5532338724689656,-0.3645625955269299,9.736102706057322,0.001989877434831319,0.0008944467443713196,0.002181661564992912,27.932914930643182,-14.579600936838133,-62.25
1771535082.4089692,0.0012267380793089923,1.8123388360066834,-9.11307635518165,-1.5463446545856039,-0.3667054849720449,9.740751506124093,-0.001989877434831319,-0.0008944467443713196,0.0,27.932914930643182,-14.579600936838133,-62.25
1771535082.4209654,0.0012267380793089923,1.8123388360066834,-9.11307635518165,-1.5463446545856039,-0.3667054849720449,9.740751506124093,-0.001989877434831319,-0.0008944467443713196,0.0,27.932914930643182,-14.579600936838133,-62.25
1771535082.4331162,0.0012267380793089923,1.8123388360066834,-9.11307635518165,-1.539017071230229,-0.3742336574304282,9.74384523063803,0.0,0.0,0.001090830782496456,27.932914930643182,-14.579600936838133,-62.25
1771535082.446626,0.0012267380793089923,1.8123388360066834,-9.11307635518165,-1.5368835321732999,-0.3731414686359828,9.742558958035568,-0.0015426540626456591,-0.0018893854617869793,0.0,28.6860775943927,-12.596485710247977,-61.875
1771535082.458496,0.0012267380793089923,1.8123388360066834,-9.11307635518165,-1.5368835321732999,-0.3731414686359828,9.742558958035568,-0.0015426540626456591,-0.0018893854617869793,0.0,28.6860775943927,-12.596485710247977,-61.875
1771535082.4704425,0.0012267380793089923,1.8123388360066834,-9.11307635518165,-1.5368351286699087,-0.36936357745867626,9.741702957987236,-0.0024371008070169786,0.00010049197304433991,-0.001090830782496456,28.6860775943927,-12.596485710247977,-61.875
1771535082.4829443,0.0012267380793089923,1.8123388360066834,-9.11307635518165,-1.542288688302312,-0.35464522614138244,9.747823522931856,-0.0024371008070169786,0.00010049197304433991,0.0,28.6860775943927,-12.596485710247977,-61.875
1771535082.4947212,0.0012267380793089923,1.8123388360066834,-9.11307635518165,-1.542288688302312,-0.35464522614138244,9.747823522931856,-0.0024371008070169786,0.00010049197304433991,0.0,28.6860775943927,-12.596485710247977,-61.875
1771535082.5067172,0.0012267380793089923,1.8123388360066834,-9.11307635518165,-1.5459179713174236,-0.34485032775448055,9.751896690531312,0.0009949387174156595,0.0004472233721856598,-0.001090830782496456,28.559978613846024,-14.29773680785382,-61.875
1771535082.5184646,0.0012267380793089923,1.8123388360066834,-9.11307635518165,-1.5459179713174236,-0.34485032775448055,9.751896690531312,0.0009949387174156595,0.0004472233721856598,-0.001090830782496456,28.559978613846024,-14.29773680785382,-61.875
1771535082.5321813,0.0012267380793089923,1.8123388360066834,-9.11307635518165,-1.5533720451102815,-0.35159941621704177,9.744572002946528,-0.002984816152246979,-0.0013416701165569794,0.0,28.559978613846024,-14.29773680785382,-61.875
1771535082.5441551,0.0012267380793089923,1.8123388360066834,-9.11307635518165,-1.5539101533110147,-0.3577704680259677,9.739697505180976,0.0,0.0,-0.002181661564992912,28.559978613846024,-14.29773680785382,-61.875
1771535082.5559938,0.0012267380793089923,1.8123388360066834,-9.11307635518165,-1.5539101533110147,-0.3577704680259677,9.739697505180976,0.0,0.0,-0.002181661564992912,28.559978613846024,-14.29773680785382,-61.875
1771535082.5681167,0.0012267380793089923,1.8123388360066834,-9.11307635518165,-1.5501539295901345,-0.3710303892750969,9.739798693077027,-0.0015426540626456591,-0.0018893854617869793,0.0,28.559978613846024,-14.29773680785382,-61.0625
1771535082.5800657,0.0012267380793089923,1.8123388360066834,-9.11307635518165,-1.547654204663657,-0.3798547187433665,9.746556255906146,-0.0034320395244326384,-0.00034673139914132,0.003272492347489368,28.559978613846024,-14.29773680785382,-61.0625
1771535082.5920634,0.0012267380793089923,1.8123388360066834,-9.11307635518165,-1.547654204663657,-0.3798547187433665,9.746556255906146,-0.0034320395244326384,-0.00034673139914132,0.003272492347489368,28.559978613846024,-14.29773680785382,-61.0625
1771535082.603988,0.0012267380793089923,1.8123388360066834,-9.11307635518165,-1.5459906656488434,-0.38572721143028094,9.751053338482002,-0.001989877434831319,-0.0008944467443713196,0.0,28.559978613846024,-14.29773680785382,-61.0625
1771535082.615825,0.0012267380793089923,1.8123388360066834,-9.11307635518165,-1.5459906656488434,-0.38572721143028094,9.751053338482002,-0.001989877434831319,-0.0008944467443713196,0.0,28.559978613846024,-14.29773680785382,-61.0625
1771535082.6297073,0.0012267380793089923,1.8123388360066834,-9.11307635518165,-1.5489979277348391,-0.3804821345079265,9.75070098499321,-0.001989877434831319,-0.0008944467443713196,0.001090830782496456,28.867466754556187,-14.98180628043874,-60.25
1771535082.6420105,0.0012267380793089923,1.8123388360066834,-9.11307635518165,-1.5551135557771563,-0.3678384392019934,9.747121385975147,-0.0028843241792026386,0.0010954306904599994,0.001090830782496456,28.867466754556187,-14.98180628043874,-60.25
1771535082.654046,0.0012267380793089923,1.8123388360066834,-9.11307635518165,-1.5551135557771563,-0.3678384392019934,9.747121385975147,-0.0028843241792026386,0.0010954306904599994,0.001090830782496456,28.867466754556187,-14.98180628043874,-60.25
1771535082.667849,0.0012267380793089923,1.8123388360066834,-9.11307635518165,-1.5561323861881253,-0.358052758309424,9.748084314522686,0.0009949387174156595,0.0004472233721856598,-0.002181661564992912,28.867466754556187,-14.98180628043874,-60.25
1771535082.679842,0.0012267380793089923,1.8123388360066834,-9.11307635518165,-1.5568104064455437,-0.3515404969886372,9.748725132714457,-0.002537592780061319,-0.002336608833972639,0.001090830782496456,28.68809867247526,-14.582765754764203,-61.5
1771535082.6918726,0.0012267380793089923,1.8123388360066834,-9.11307635518165,-1.5568104064455437,-0.3515404969886372,9.748725132714457,-0.002537592780061319,-0.002336608833972639,0.001090830782496456,28.68809867247526,-14.582765754764203,-61.5
1771535082.7040083,0.0012267380793089923,1.8123388360066834,-9.11307635518165,-1.5531472926354675,-0.3563598150318335,9.749151590062672,-0.0014421620896013193,0.0005477153452299997,-0.002181661564992912,28.68809867247526,-14.582765754764203,-61.5
