timestamp,yaw,pitch,roll,ax,ay,az,gx,gy,gz,mx,my,mz
1765761405.0753658,12.56217758429424,0.9915940374856415,-9.372770286080073,-0.17727266000626551,-1.5302532466405114,9.124702447075107,-0.001090830782496456,0.002181661564992912,0.001090830782496456,7.6875,43.0625,-51.5
1765761405.5455894,12.40662232110195,0.9997342907346403,-9.372169388806318,-0.18950798090159374,-1.5848636089976749,9.716449858373409,0.001090830782496456,0.0,0.003272492347489368,7.6875,43.0625,-52.25
1765761405.5657763,12.40662232110195,0.9997342907346403,-9.372169388806318,-0.18950798090159374,-1.5848636089976749,9.716449858373409,0.001090830782496456,0.0,0.003272492347489368,7.6875,43.0625,-52.25
1765761405.5801497,12.413716673238676,1.0003089679284762,-9.372170652563579,-0.19301767849354348,-1.5865817891651997,9.714292308697864,0.0,-0.001090830782496456,0.0,8.75,43.0625,-52.25
1765761405.8325636,12.272206222967323,1.0026751361574726,-9.371798551332216,-0.19945110158158122,-1.581515213644456,9.720753038357353,0.0,0.002181661564992912,0.0,8.375,42.375,-52.5625
1765761405.8447917,12.272206222967323,1.0026751361574726,-9.371798551332216,-0.19628960252682,-1.5843534694616594,9.720501138614829,0.0,-0.001090830782496456,-0.002181661564992912,8.375,42.375,-52.5625
1765761405.8575516,12.272206222967323,1.0026751361574726,-9.371798551332216,-0.19628960252682,-1.5843534694616594,9.720501138614829,0.0,-0.001090830782496456,-0.002181661564992912,8.375,42.375,-52.5625
1765761405.8695438,12.272206222967323,1.0026751361574726,-9.371798551332216,-0.1941856602221349,-1.5862422970026133,9.720333502150083,0.0,-0.001090830782496456,-0.002181661564992912,7.0,43.0625,-51.875
1765761405.881251,12.15256460939477,0.9998367591719363,-9.372192353189769,-0.18944039841362306,-1.5841541789242126,9.720221941955417,-0.001090830782496456,-0.002181661564992912,-0.001090830782496456,7.0,43.0625,-51.875
1765761405.892753,12.15256460939477,0.9998367591719363,-9.372192353189769,-0.18944039841362306,-1.5841541789242126,9.720221941955417,-0.001090830782496456,-0.002181661564992912,-0.001090830782496456,7.0,43.0625,-51.875
1765761405.9051416,-1.0082524496285292,0.9277219061194437,-9.386728598881334,-0.5184524434364692,-1.507000954703485,9.720147699892076,0.0023636710458491577,0.000602177853481428,0.0,7.0,43.0625,-51.875
1765761405.9181647,-0.1913554439589137,1.8870904045418753,-9.278511974690787,-0.516202339882656,-1.506544010813975,9.720098292628261,-0.00023186306777726035,-0.0010659039890359486,0.0,7.0,43.0625,-51.875
1765761405.9301615,-0.1913554439589137,1.8870904045418753,-9.278511974690787,-0.516202339882656,-1.506544010813975,9.720098292628261,-0.00023186306777726035,-0.0010659039890359486,0.0,7.0,43.0625,-51.875
1765761405.9448225,-0.12709370835741396,0.999232012950403,-9.37191157335527,-0.5114362492155465,-1.5069509446731737,9.723410524353428,-0.0015296301245904694,-0.0018999449102946372,-0.001090830782496456,17.03682438681697,40.683377930215656,-52.25
1765761405.957561,-0.12709370835741396,0.999232012950403,-9.37191157335527,-0.5024381502558757,-1.511912476324612,9.725614777566472,-0.0010659039890359486,0.00023186306777726035,-0.001090830782496456,17.03682438681697,40.683377930215656,-52.25
1765761405.970357,-0.12709370835741396,0.999232012950403,-9.37191157335527,-0.5024381502558757,-1.511912476324612,9.725614777566472,-0.0010659039890359486,0.00023186306777726035,-0.001090830782496456,17.03682438681697,40.683377930215656,-52.25
1765761405.9855707,-0.155387585957589,1.0039171266325844,-9.371663793969518,-0.49645001591356613,-1.515214320214704,9.727081683456632,0.0,0.0,0.0,17.03682438681697,40.683377930215656,-52.25
1765761405.9984415,-0.155387585957589,1.0039171266325844,-9.371663793969518,-0.4990023231753034,-1.515989610613007,9.72805789294012,0.0,0.0,-0.002181661564992912,16.46318925995702,40.1045815573587,-51.875
1765761406.0118341,-0.155387585957589,1.0039171266325844,-9.371663793969518,-0.4990023231753034,-1.515989610613007,9.72805789294012,0.0,0.0,-0.002181661564992912,16.46318925995702,40.1045815573587,-51.875
1765761406.0252953,-0.16232083511223314,1.003355404350904,-9.371784808903058,-0.5072381989215501,-1.515083507885977,9.728707549446407,-0.0025955341136264178,-0.0016680818425173767,0.001090830782496456,16.46318925995702,40.1045815573587,-51.875
1765761406.038103,-0.16232083511223314,1.003355404350904,-9.371784808903058,-0.512719082229917,-1.5144805066429692,9.735830112008841,0.0,0.0,-0.001090830782496456,16.46318925995702,40.1045815573587,-51.875
1765761406.0506465,-0.16232083511223314,1.003355404350904,-9.371784808903058,-0.512719082229917,-1.5144805066429692,9.735830112008841,0.0,0.0,-0.001090830782496456,16.46318925995702,40.1045815573587,-51.875
1765761406.0628114,-0.16232083511223314,1.003355404350904,-9.371784808903058,-0.5163665488461571,-1.5140792160517125,9.733879874415265,-0.0006955892033317811,-0.0031977119671078463,0.003272492347489368,16.89069185952245,40.01158813089855,-52.25
1765761406.0746984,-0.2393181511565379,0.9970547952609835,-9.372549561558257,-0.5155252252470425,-1.5145231865592108,9.73927223649696,0.0034295750348851068,0.0003703147857041676,-0.001090830782496456,16.89069185952245,40.01158813089855,-52.25
1765761406.0875702,-0.2393181511565379,0.9970547952609835,-9.372549561558257,-0.5155252252470425,-1.5145231865592108,9.73927223649696,0.0034295750348851068,0.0003703147857041676,-0.001090830782496456,16.89069185952245,40.01158813089855,-52.25
1765761406.4075742,-0.3245339962311616,0.9970045827805935,-9.372142516948468,-0.5152119861978467,-1.5141216979852665,9.734106593233479,0.0,0.0,0.001090830782496456,16.46318925995702,40.1045815573587,-52.25
1765761406.4223933,-0.3245339962311616,0.9970045827805935,-9.372142516948468,-0.5152119861978467,-1.5141216979852665,9.734106593233479,0.0,0.0,0.001090830782496456,16.46318925995702,40.1045815573587,-52.25
1765761406.4427645,-0.3245339962311616,0.9970045827805935,-9.372142516948468,-0.5140458517886319,-1.5112827859240863,9.72604266850859,-0.0003703147857041675,0.0034295750348851068,-0.003272492347489368,16.46318925995702,40.1045815573587,-52.6875
1765761406.4591362,-0.3245339962311616,0.9970045827805935,-9.372142516948468,-0.5172494991664947,-1.5119511686341771,9.720676216684117,0.0004637261355545207,0.0021318079780718972,0.001090830782496456,16.46318925995702,40.1045815573587,-52.6875
1765761406.4714372,-0.3245339962311616,0.9970045827805935,-9.372142516948468,-0.5172494991664947,-1.5119511686341771,9.720676216684117,0.0004637261355545207,0.0021318079780718972,0.001090830782496456,16.46318925995702,40.1045815573587,-52.6875
1765761406.4899209,-0.3245339962311616,0.9970045827805935,-9.372142516948468,-0.5186704657961063,-1.509127297974068,9.723795126356764,0.0004637261355545207,0.0021318079780718972,0.0,16.46318925995702,40.1045815573587,-52.6875
1765761406.5029993,-0.3245339962311616,0.9970045827805935,-9.372142516948468,-0.522884775102226,-1.5065370186811975,9.725870725903407,0.0,0.0,-0.003272492347489368,16.970400510774006,40.37801893052607,-51.875
1765761406.5148213,-0.3245339962311616,0.9970045827805935,-9.372142516948468,-0.522884775102226,-1.5065370186811975,9.725870725903407,0.0,0.0,-0.003272492347489368,16.970400510774006,40.37801893052607,-51.875
1765761406.5299404,-0.3245339962311616,0.9970045827805935,-9.372142516948468,-0.5256893508685291,-1.504813216747108,9.72725201421573,0.0010659039890359486,-0.00023186306777726035,0.001090830782496456,16.970400510774006,40.37801893052607,-51.875
1765761406.555565,-0.3245339962311616,0.9970045827805935,-9.372142516948468,-0.5151921020757081,-1.5097788173565307,9.721481022742942,0.0010659039890359486,-0.00023186306777726035,0.001090830782496456,16.970400510774006,40.37801893052607,-51.875
1765761406.5732403,-0.3245339962311616,0.9970045827805935,-9.372142516948468,-0.5151921020757081,-1.5097788173565307,9.721481022742942,0.0010659039890359486,-0.00023186306777726035,0.001090830782496456,16.970400510774006,40.37801893052607,-51.875
1765761406.5850308,-0.3245339962311616,0.9970045827805935,-9.372142516948468,-0.508206300266038,-1.5130833690927081,9.717640492384001,-0.0012977670568132089,-0.0008340409212586883,-0.001090830782496456,16.542897911208573,40.471012356986215,-53.0625
1765761406.596728,-0.3245339962311616,0.9970045827805935,-9.372142516948468,-0.5100946709729227,-1.5138604615323328,9.711739550624342,0.0,0.0,0.0,16.542897911208573,40.471012356986215,-53.0625
1765761406.8156078,-0.3245339962311616,0.9970045827805935,-9.372142516948468,-0.52095260983095,-1.5192548176234406,9.722690482067339,-0.00023186306777726035,-0.0010659039890359486,-0.001090830782496456,15.993251711767307,40.59057533386355,-52.6875
1765761406.827872,-0.3245339962311616,0.9970045827805935,-9.372142516948468,-0.52095260983095,-1.5192548176234406,9.722690482067339,-0.00023186306777726035,-0.0010659039890359486,-0.001090830782496456,15.993251711767307,40.59057533386355,-52.6875
1765761406.8402057,-0.3245339962311616,0.9970045827805935,-9.372142516948468,-0.5211348445768448,-1.5139877947893177,9.72513559746848,-0.0010659039890359486,0.00023186306777726035,-0.002181661564992912,15.993251711767307,40.59057533386355,-52.6875
1765761406.8519814,-0.3245339962311616,0.9970045827805935,-9.372142516948468,-0.517987447877192,-1.5111936748429793,9.72676279445421,-0.00023186306777726035,-0.0010659039890359486,0.0,15.993251711767307,40.59057533386355,-52.6875
1765761406.863561,-0.3245339962311616,0.9970045827805935,-9.372142516948468,-0.517987447877192,-1.5111936748429793,9.72676279445421,-0.00023186306777726035,-0.0010659039890359486,0.0,15.993251711767307,40.59057533386355,-52.6875
1765761406.8753319,-0.3245339962311616,0.9970045827805935,-9.372142516948468,-0.5158928905322977,-1.509334219231056,9.727845675871233,-0.0003703147857041675,0.0034295750348851068,0.0,15.993251711767307,40.59057533386355,-52.6875
1765761406.8872757,-0.3245339962311616,0.9970045827805935,-9.372142516948468,-0.5112303141296589,-1.5088077972060707,9.728566321357683,-0.0008340409212586882,0.001297767056813209,0.001090830782496456,17.03682438681697,40.683377930215656,-53.0625
1765761406.8989012,-0.3245339962311616,0.9970045827805935,-9.372142516948468,-0.5112303141296589,-1.5088077972060707,9.728566321357683,-0.0008340409212586882,0.001297767056813209,0.001090830782496456,17.03682438681697,40.683377930215656,-53.0625
1765761406.9107425,-0.3245339962311616,0.9970045827805935,-9.372142516948468,-0.5128181433319842,-1.5142837880903934,9.725700791171459,-0.0004637261355545207,-0.0021318079780718972,0.0,17.03682438681697,40.683377930215656,-53.0625
1765761406.9224253,-0.3245339962311616,0.9970045827805935,-9.372142516948468,-0.520412169703618,-1.5165059490265442,9.720448701135277,-0.0010659039890359486,0.00023186306777726035,0.0,17.03682438681697,40.683377930215656,-53.0625
1765761406.9340634,-0.3245339962311616,0.9970045827805935,-9.372142516948468,-0.520412169703618,-1.5165059490265442,9.720448701135277,-0.0010659039890359486,0.00023186306777726035,0.0,17.03682438681697,40.683377930215656,-53.0625
1765761406.9458618,-0.3245339962311616,0.9970045827805935,-9.372142516948468,-0.5240438595965675,-1.5114474285316875,9.716953493885887,0.0,0.0,0.001090830782496456,17.190698783106996,39.62652047995741,-52.6875
1765761406.9576266,-0.3245339962311616,0.9970045827805935,-9.372142516948468,-0.5240438595965675,-1.5114474285316875,9.716953493885887,0.0,0.0,0.001090830782496456,17.190698783106996,39.62652047995741,-52.6875
1765761406.969802,-0.3245339962311616,0.9970045827805935,-9.372142516948468,-0.5231920367643407,-1.5087920645630066,9.717972584212761,0.0028273971814036783,0.0027339858315533257,-0.001090830782496456,17.190698783106996,39.62652047995741,-52.6875
1765761406.9831493,-0.3245339962311616,0.9970045827805935,-9.372142516948468,-0.5226251581849783,-1.5070249495042087,9.718650777441312,0.0,0.0,0.0,17.190698783106996,39.62652047995741,-52.6875
1765761406.9954553,-0.3245339962311616,0.9970045827805935,-9.372142516948468,-0.5226251581849783,-1.5070249495042087,9.718650777441312,0.0,0.0,0.0,17.190698783106996,39.62652047995741,-52.6875
1765761407.0074377,-0.3245339962311616,0.9970045827805935,-9.372142516948468,-0.5189792349355109,-1.5065599790858173,9.715756995751677,0.0008340409212586882,-0.001297767056813209,0.001090830782496456,16.157830260267424,40.17100543340167,-52.6875
1765761407.0191662,-0.3245339962311616,0.9970045827805935,-9.372142516948468,-0.520532610541242,-1.5088081934405182,9.713831216362886,0.0,0.0,0.0,16.157830260267424,40.17100543340167,-52.6875
1765761407.0307717,-0.3245339962311616,0.9970045827805935,-9.372142516948468,-0.5175866678538932,-1.507746708005291,9.71254963169201,-0.0021318079780718972,0.0004637261355545207,0.001090830782496456,16.157830260267424,40.17100543340167,-52.6875
1765761407.043937,-0.3245339962311616,0.9970045827805935,-9.372142516948468,-0.5175866678538932,-1.507746708005291,9.71254963169201,-0.0021318079780718972,0.0004637261355545207,0.001090830782496456,16.157830260267424,40.17100543340167,-52.6875
1765761407.056206,-0.3245339962311616,0.9970045827805935,-9.372142516948468,-0.5156261759037987,-1.507040301305717,9.701661416287822,0.0004637261355545207,0.0021318079780718972,-0.001090830782496456,16.157830260267424,40.17100543340167,-52.6875
1765761407.0677836,-0.3245339962311616,0.9970045827805935,-9.372142516948468,-0.5156261759037987,-1.507040301305717,9.701661416287822,0.0004637261355545207,0.0021318079780718972,-0.001090830782496456,16.157830260267424,40.17100543340167,-52.6875
1765761407.0808635,-0.3245339962311616,0.9970045827805935,-9.372142516948468,-0.5143214904111408,-1.5065701955382302,9.69441543056567,0.0003703147857041675,-0.0034295750348851068,0.002181661564992912,17.482963837696037,40.970100078591614,-52.25
1765761407.092586,-0.3245339962311616,0.9970045827805935,-9.372142516948468,-0.5134532367900688,-1.5062573454013932,9.70631886654714,0.0012977670568132089,0.0008340409212586883,-0.001090830782496456,17.482963837696037,40.970100078591614,-52.25
1765761407.1041121,-0.3245339962311616,0.9970045827805935,-9.372142516948468,-0.5134532367900688,-1.5062573454013932,9.70631886654714,0.0012977670568132089,0.0008340409212586883,-0.001090830782496456,17.482963837696037,40.970100078591614,-52.25
1765761407.3293526,-0.3245339962311616,0.9970045827805935,-9.372142516948468,-0.512140422080852,-1.5175014445283352,9.733984832111865,0.0,0.0,0.001090830782496456,17.03682438681697,40.683377930215656,-52.6875
1765761407.3439012,-0.3245339962311616,0.9970045827805935,-9.372142516948468,-0.5094441132063109,-1.5175116662948762,9.739342084671593,0.00023186306777726035,0.0010659039890359486,-0.001090830782496456,17.03682438681697,40.683377930215656,-52.6875
1765761407.3556168,-0.3245339962311616,0.9970045827805935,-9.372142516948468,-0.5076497497700474,-1.5175184687663246,9.732871941283703,0.0,0.0,-0.001090830782496456,17.03682438681697,40.683377930215656,-52.6875
1765761407.3672185,-0.3245339962311616,0.9970045827805935,-9.372142516948468,-0.5076497497700474,-1.5175184687663246,9.732871941283703,0.0,0.0,-0.001090830782496456,17.03682438681697,40.683377930215656,-52.6875
1765761407.379011,-0.3245339962311616,0.9970045827805935,-9.372142516948468,-0.5122819398089978,-1.5128322740211948,9.738601468257256,0.0012977670568132089,0.0008340409212586883,0.001090830782496456,16.970400510774006,40.37801893052607,-52.6875
1765761407.390821,-0.3245339962311616,0.9970045827805935,-9.372142516948468,-0.5153646105349662,-1.5097136637665363,9.72568884591855,-0.0012977670568132089,-0.0008340409212586883,0.001090830782496456,16.970400510774006,40.37801893052607,-52.6875
1765761407.407147,-0.3245339962311616,0.9970045827805935,-9.372142516948468,-0.5153646105349662,-1.5097136637665363,9.72568884591855,-0.0012977670568132089,-0.0008340409212586883,0.001090830782496456,16.970400510774006,40.37801893052607,-52.6875
1765761407.4200044,-0.3245339962311616,0.9970045827805935,-9.372142516948468,-0.5174160934674098,-1.50763826347922,9.717095639995584,0.0012977670568132089,0.0008340409212586883,-0.001090830782496456,16.970400510774006,40.37801893052607,-52.6875
1765761407.4409134,-0.3245339962311616,0.9970045827805935,-9.372142516948468,-0.5155126605550346,-1.5069681326850213,9.71137695744625,0.00023186306777726035,0.0010659039890359486,-0.001090830782496456,16.542897911208573,40.471012356986215,-52.25
1765761407.4591112,-0.3245339962311616,0.9970045827805935,-9.372142516948468,-0.5109772753272375,-1.5072331930406035,9.707571238091537,-0.0012977670568132089,-0.0008340409212586883,0.002181661564992912,16.542897911208573,40.471012356986215,-52.25
1765761407.4800143,-0.3245339962311616,0.9970045827805935,-9.372142516948468,-0.5109772753272375,-1.5072331930406035,9.707571238091537,-0.0012977670568132089,-0.0008340409212586883,0.002181661564992912,16.542897911208573,40.471012356986215,-52.25
1765761407.499299,-0.3245339962311616,0.9970045827805935,-9.372142516948468,-0.5079590271217111,-1.5074095877463252,9.708383686080966,0.0,0.0,0.0,16.542897911208573,40.471012356986215,-52.25
1765761407.5149436,-0.3245339962311616,0.9970045827805935,-9.372142516948468,-0.5124877604316757,-1.5061049266259852,9.708924361142293,0.0008340409212586882,-0.001297767056813209,0.0,17.928912458467064,39.785746952352476,-52.25
1765761407.527012,-0.3245339962311616,0.9970045827805935,-9.372142516948468,-0.5124877604316757,-1.5061049266259852,9.708924361142293,0.0008340409212586882,-0.001297767056813209,0.0,17.928912458467064,39.785746952352476,-52.25
1765761407.5394332,-0.3245339962311616,0.9970045827805935,-9.372142516948468,-0.5187702537475417,-1.5045256643111486,9.719319509477828,-0.00023186306777726035,-0.0010659039890359486,0.001090830782496456,17.928912458467064,39.785746952352476,-52.25
1765761407.5514219,-0.3245339962311616,0.9970045827805935,-9.372142516948468,-0.5229511828692017,-1.5034746828821408,9.726237364573711,0.0,0.0,0.0,17.928912458467064,39.785746952352476,-52.25
1765761407.5634608,-0.3245339962311616,0.9970045827805935,-9.372142516948468,-0.5229511828692017,-1.5034746828821408,9.726237364573711,0.0,0.0,0.0,17.928912458467064,39.785746952352476,-52.25
1765761407.5753133,-0.3245339962311616,0.9970045827805935,-9.372142516948468,-0.525733544495628,-1.502775266481368,9.730841119862516,-0.00023186306777726035,-0.0010659039890359486,0.0,16.157830260267424,40.17100543340167,-53.5
1765761407.5868967,-0.3245339962311616,0.9970045827805935,-9.372142516948468,-0.5184901843282177,-1.5077115593068071,9.737249979287219,0.00023186306777726035,0.0010659039890359486,-0.003272492347489368,16.157830260267424,40.17100543340167,-53.5
1765761407.5985382,-0.3245339962311616,0.9970045827805935,-9.372142516948468,-0.5184901843282177,-1.5077115593068071,9.737249979287219,0.00023186306777726035,0.0010659039890359486,-0.003272492347489368,16.157830260267424,40.17100543340167,-53.5
1765761407.6103904,-0.3245339962311616,0.9970045827805935,-9.372142516948468,-0.5136698090504408,-1.5109966070401328,9.741515003642707,-0.0023636710458491577,-0.000602177853481428,0.001090830782496456,16.157830260267424,40.17100543340167,-53.5
1765761407.820878,-0.3245339962311616,0.9970045827805935,-9.372142516948468,-0.5198573591012906,-1.5078176952554385,9.720360538607313,0.00023186306777726035,0.0010659039890359486,-0.001090830782496456,16.542897911208573,40.471012356986215,-53.0625
1765761407.8339348,-0.3245339962311616,0.9970045827805935,-9.372142516948468,-0.5198573591012906,-1.5078176952554385,9.720360538607313,0.00023186306777726035,0.0010659039890359486,-0.001090830782496456,16.542897911208573,40.471012356986215,-53.0625
1765761407.846177,-0.3245339962311616,0.9970045827805935,-9.372142516948468,-0.5204059674510088,-1.5063765176144404,9.730275269537644,0.0021318079780718972,-0.0004637261355545207,0.0,16.542897911208573,40.471012356986215,-53.0625
1765761407.858635,-0.3245339962311616,0.9970045827805935,-9.372142516948468,-0.5207710601793895,-1.5054174299933654,9.73687341221698,0.0003703147857041675,-0.0034295750348851068,0.0,16.542897911208573,40.471012356986215,-53.0625
1765761407.8702455,-0.3245339962311616,0.9970045827805935,-9.372142516948468,-0.5207710601793895,-1.5054174299933654,9.73687341221698,0.0003703147857041675,-0.0034295750348851068,0.0,16.542897911208573,40.471012356986215,-53.0625
1765761407.8823285,-0.3245339962311616,0.9970045827805935,-9.372142516948468,-0.5217250502250437,-1.508047839782601,9.731229067342035,0.0012977670568132089,0.0008340409212586883,-0.002181661564992912,16.542897911208573,40.471012356986215,-53.0625
1765761407.8948572,-0.3245339962311616,0.9970045827805935,-9.372142516948468,-0.5158225761689587,-1.5112203979402745,9.717437483757264,-0.0008340409212586882,0.001297767056813209,-0.001090830782496456,16.970400510774006,40.37801893052607,-52.0
1765761407.90654,-0.3245339962311616,0.9970045827805935,-9.372142516948468,-0.5158225761689587,-1.5112203979402745,9.717437483757264,-0.0008340409212586882,0.001297767056813209,-0.001090830782496456,16.970400510774006,40.37801893052607,-52.0
1765761407.918633,-0.3245339962311616,0.9970045827805935,-9.372142516948468,-0.5118945456195896,-1.5133316999544097,9.71829467406564,0.0008340409212586882,-0.001297767056813209,0.001090830782496456,16.970400510774006,40.37801893052607,-52.0
1765761407.9302828,-0.3245339962311616,0.9970045827805935,-9.372142516948468,-0.5118945456195896,-1.5133316999544097,9.71829467406564,0.0008340409212586882,-0.001297767056813209,0.001090830782496456,16.970400510774006,40.37801893052607,-52.0
1765761407.9430315,-0.3245339962311616,0.9970045827805935,-9.372142516948468,-0.5092804851679608,-1.5147367478600275,9.712174901225785,0.00023186306777726035,0.0010659039890359486,0.0,16.970400510774006,40.37801893052607,-52.0
1765761407.9552276,-0.3245339962311616,0.9970045827805935,-9.372142516948468,-0.5108095290257207,-1.5149607666325329,9.71813759588516,0.0,0.0,0.001090830782496456,16.542897911208573,40.471012356986215,-52.6875
1765761407.9670959,-0.3245339962311616,0.9970045827805935,-9.372142516948468,-0.5108095290257207,-1.5149607666325329,9.71813759588516,0.0,0.0,0.001090830782496456,16.542897911208573,40.471012356986215,-52.6875
1765761407.9789221,-0.3245339962311616,0.9970045827805935,-9.372142516948468,-0.5143847376066014,-1.5111301518225613,9.715415479158672,-0.0028273971814036783,-0.0027339858315533257,-0.001090830782496456,16.542897911208573,40.471012356986215,-52.6875
1765761407.9905825,-0.3245339962311616,0.9970045827805935,-9.372142516948468,-0.5207436957801012,-1.5111385674313766,9.723639276007189,-0.0006021778534814279,0.0023636710458491577,0.0,16.542897911208573,40.471012356986215,-52.6875
1765761408.0024364,-0.3245339962311616,0.9970045827805935,-9.372142516948468,-0.5207436957801012,-1.5111385674313766,9.723639276007189,-0.0006021778534814279,0.0023636710458491577,0.0,16.542897911208573,40.471012356986215,-52.6875
1765761408.014667,-0.3245339962311616,0.9970045827805935,-9.372142516948468,-0.524975511410348,-1.511144167925035,9.729112120944047,0.0004637261355545207,0.0021318079780718972,0.0,16.542897911208573,40.471012356986215,-52.6875
1765761408.026389,-0.3245339962311616,0.9970045827805935,-9.372142516948468,-0.5179857217777482,-1.5132809697308127,9.732754238113841,0.0004637261355545207,0.0021318079780718972,-0.001090830782496456,16.609321787251538,40.77637135667581,-52.0
1765761408.0380244,-0.3245339962311616,0.9970045827805935,-9.372142516948468,-0.5179857217777482,-1.5132809697308127,9.732754238113841,0.0004637261355545207,0.0021318079780718972,-0.001090830782496456,16.609321787251538,40.77637135667581,-52.0
1765761408.0497646,-1.2127828060413308,0.9249020341510245,-9.386930281799602,-0.5133340948583193,-1.5147029874629176,9.735178026405226,-0.0021318079780718972,0.0004637261355545207,-0.001090830782496456,16.609321787251538,40.77637135667581,-52.0
1765761408.0620677,-0.3245339962311616,0.9970045827805935,-9.372142516948468,-0.5095274641922468,-1.5123806524913042,9.730100807023014,-0.00023186306777726035,-0.0010659039890359486,-0.001090830782496456,16.609321787251538,40.77637135667581,-52.0
1765761408.0747468,-0.3245339962311616,0.9970045827805935,-9.372142516948468,-0.5095274641922468,-1.5123806524913042,9.730100807023014,-0.00023186306777726035,-0.0010659039890359486,-0.001090830782496456,16.609321787251538,40.77637135667581,-52.0
1765761408.0866532,-0.3245339962311616,0.9970045827805935,-9.372142516948468,-0.5077052189200962,-1.514103836397227,9.726721974240409,0.0012977670568132089,0.0008340409212586883,0.0,16.542897911208573,40.471012356986215,-52.0
1765761408.0982535,-0.3245339962311616,0.9970045827805935,-9.372142516948468,-0.5077052189200962,-1.514103836397227,9.726721974240409,0.0012977670568132089,0.0008340409212586883,0.0,16.542897911208573,40.471012356986215,-52.0
1765761408.110087,-0.3245339962311616,0.9970045827805935,-9.372142516948468,-0.5057815101340236,-1.511981924150043,9.71778317535298,0.0,0.0,0.0,16.542897911208573,40.471012356986215,-52.0
1765761408.1216452,-0.3245339962311616,0.9970045827805935,-9.372142516948468,-0.5110386472008283,-1.509147765426315,9.72856006308292,0.0,0.0,-0.001090830782496456,16.542897911208573,40.471012356986215,-52.0
1765761408.3381407,-0.3245339962311616,0.9970045827805935,-9.372142516948468,-0.5133405222106376,-1.502152541351549,9.71053976102487,-0.0012977670568132089,-0.0008340409212586883,0.001090830782496456,16.89069185952245,40.01158813089855,-53.0625
1765761408.3506403,-0.3245339962311616,0.9970045827805935,-9.372142516948468,-0.5133405222106376,-1.502152541351549,9.71053976102487,-0.0012977670568132089,-0.0008340409212586883,0.001090830782496456,16.89069185952245,40.01158813089855,-53.0625
1765761408.3634536,-0.3245339962311616,0.9970045827805935,-9.372142516948468,-0.5102427664366863,-1.507297142689208,9.710359204932526,-0.0021318079780718972,0.0004637261355545207,0.0,16.89069185952245,40.01158813089855,-53.0625
1765761408.3752801,-0.3245339962311616,0.9970045827805935,-9.372142516948468,-0.5081812445733211,-1.5107208174104574,9.710239046870015,0.0015296301245904694,0.0018999449102946372,0.001090830782496456,16.157830260267424,40.17100543340167,-52.25
1765761408.3883498,-0.3245339962311616,0.9970045827805935,-9.372142516948468,-0.5081812445733211,-1.5107208174104574,9.710239046870015,0.0015296301245904694,0.0018999449102946372,0.001090830782496456,16.157830260267424,40.17100543340167,-52.25
1765761408.4010086,-0.3245339962311616,0.9970045827805935,-9.372142516948468,-0.5100779966893101,-1.5122882097792265,9.716849306436306,-0.0010659039890359486,0.00023186306777726035,-0.001090830782496456,16.157830260267424,40.17100543340167,-52.25
1765761408.4136758,-0.3245339962311616,0.9970045827805935,-9.372142516948468,-0.5138979110084717,-1.509351595091102,9.714558136921596,0.0012977670568132089,0.0008340409212586883,0.0,16.157830260267424,40.17100543340167,-52.25
1765761408.429426,-0.3245339962311616,0.9970045827805935,-9.372142516948468,-0.5138979110084717,-1.509351595091102,9.714558136921596,0.0012977670568132089,0.0008340409212586883,0.0,16.157830260267424,40.17100543340167,-52.25
1765761408.441556,-0.3245339962311616,0.9970045827805935,-9.372142516948468,-0.516440021316635,-1.5073973108202907,9.719723612618235,-0.0004637261355545207,-0.0021318079780718972,0.001090830782496456,16.609321787251538,40.77637135667581,-52.0
1765761408.454436,-0.3245339962311616,0.9970045827805935,-9.372142516948468,-0.516440021316635,-1.5073973108202907,9.719723612618235,-0.0004637261355545207,-0.0021318079780718972,0.001090830782496456,16.609321787251538,40.77637135667581,-52.0
1765761408.4685225,-0.3245339962311616,0.9970045827805935,-9.372142516948468,-0.5181317673294847,-1.5060967564688514,9.723161178992205,0.0010659039890359486,-0.00023186306777726035,-0.002181661564992912,16.609321787251538,40.77637135667581,-52.0
1765761408.481863,-0.3245339962311616,0.9970045827805935,-9.372142516948468,-0.5199686303162651,-1.508499923963463,9.732139064428587,0.0,0.0,0.0,16.609321787251538,40.77637135667581,-52.0
1765761408.496588,-0.3245339962311616,0.9970045827805935,-9.372142516948468,-0.5199686303162651,-1.508499923963463,9.732139064428587,0.0,0.0,0.0,16.609321787251538,40.77637135667581,-52.0
1765761408.5146396,-0.3245339962311616,0.9970045827805935,-9.372142516948468,-0.5081163545654618,-1.512943304739067,9.738113746896948,0.00023186306777726035,0.0010659039890359486,-0.001090830782496456,17.862488582424103,39.48038795266288,-53.5
1765761408.5371387,-0.3245339962311616,0.9970045827805935,-9.372142516948468,-0.4995177725386275,-1.5126316531220654,9.742089831338067,-0.00023186306777726035,-0.0010659039890359486,0.0,17.862488582424103,39.48038795266288,-53.5
1765761408.5521758,-0.3245339962311616,0.9970045827805935,-9.372142516948468,-0.4995177725386275,-1.5126316531220654,9.742089831338067,-0.00023186306777726035,-0.0010659039890359486,0.0,17.862488582424103,39.48038795266288,-53.5
1765761408.5717194,-0.3245339962311616,0.9970045827805935,-9.372142516948468,-0.5003328560269249,-1.5110022026257877,9.748080982825176,0.00023186306777726035,0.0010659039890359486,-0.002181661564992912,17.862488582424103,39.48038795266288,-53.5
1765761408.5920525,-0.3245339962311616,0.9970045827805935,-9.372142516948468,-0.5048549817839281,-1.5124754684967499,9.745377803799661,0.0010659039890359486,-0.00023186306777726035,0.0,16.139384239061826,41.26236513318065,-53.0625
1765761408.6128488,-0.3245339962311616,0.9970045827805935,-9.372142516948468,-0.507864405959759,-1.5134559104764171,9.74357886835467,-0.00023186306777726035,-0.0010659039890359486,-0.001090830782496456,16.139384239061826,41.26236513318065,-53.0625
1765761408.9434462,-0.3245339962311616,0.9970045827805935,-9.372142516948468,-0.5211703040342351,-1.507076204798378,9.733015283905328,-0.0012977670568132089,-0.0008340409212586883,-0.002181661564992912,18.356415058032496,39.69275352589233,-52.25
1765761408.9613936,-0.3245339962311616,0.9970045827805935,-9.372142516948468,-0.5180110457499771,-1.5065940889115277,9.738696861170705,0.0006021778534814279,-0.0023636710458491577,0.0,18.356415058032496,39.69275352589233,-52.25
1765761408.9759512,-0.3245339962311616,0.9970045827805935,-9.372142516948468,-0.5180110457499771,-1.5065940889115277,9.738696861170705,0.0006021778534814279,-0.0023636710458491577,0.0,18.356415058032496,39.69275352589233,-52.25
1765761408.9906483,-0.3245339962311616,0.9970045827805935,-9.372142516948468,-0.5159085946530307,-1.5062732461744162,9.742477887373438,-0.0010659039890359486,0.00023186306777726035,0.0,17.116533038068525,41.04980872984317,-53.0625
1765761409.0053592,-0.3245339962311616,0.9970045827805935,-9.372142516948468,-0.517778108821281,-1.5053487040036468,9.741649006367208,0.0012977670568132089,0.0008340409212586883,0.0,17.116533038068525,41.04980872984317,-53.0625
1765761409.0223897,-0.3245339962311616,0.9970045827805935,-9.372142516948468,-0.5215798965904904,-1.5007537347161923,9.74109739531677,0.0015296301245904694,0.0018999449102946372,-0.001090830782496456,17.116533038068525,41.04980872984317,-53.0625
1765761409.0370438,-0.3245339962311616,0.9970045827805935,-9.372142516948468,-0.5215798965904904,-1.5007537347161923,9.74109739531677,0.0015296301245904694,0.0018999449102946372,-0.001090830782496456,17.116533038068525,41.04980872984317,-53.0625
1765761409.052053,-0.3245339962311616,0.9970045827805935,-9.372142516948468,-0.5241099438821472,-1.4976958339845614,9.740730304324602,0.0,0.0,-0.001090830782496456,16.609321787251538,40.77637135667581,-51.5625
1765761409.0666623,-0.3245339962311616,0.9970045827805935,-9.372142516948468,-0.5166986713434835,-1.5010625818338108,9.750521344491947,0.00023186306777726035,0.0010659039890359486,0.0,16.609321787251538,40.77637135667581,-51.5625
1765761409.0809336,-0.3245339962311616,0.9970045827805935,-9.372142516948468,-0.5117665522583416,-1.5033031149184481,9.75703717235023,-0.0006021778534814279,0.0023636710458491577,-0.001090830782496456,16.609321787251538,40.77637135667581,-51.5625
1765761409.0976033,-0.3245339962311616,0.9970045827805935,-9.372142516948468,-0.5117665522583416,-1.5033031149184481,9.75703717235023,-0.0006021778534814279,0.0023636710458491577,-0.001090830782496456,16.609321787251538,40.77637135667581,-51.5625
1765761409.1123424,-0.3245339962311616,0.9970045827805935,-9.372142516948468,-0.5084842821025598,-1.50479416465788,9.747992936174073,0.0008340409212586882,-0.001297767056813209,0.0,15.847119184472787,39.918785534546444,-52.25
1765761409.1267278,-0.3245339962311616,0.9970045827805935,-9.372142516948468,-0.5062999679792471,-1.5057864416033548,9.73862898632226,-0.0006021778534814279,0.0023636710458491577,0.002181661564992912,15.847119184472787,39.918785534546444,-52.25
1765761409.4131486,-0.3245339962311616,0.9970045827805935,-9.372142516948468,-0.5166870834962599,-1.5052404956101013,9.735820156274663,0.0,0.0,0.001090830782496456,16.46318925995702,40.1045815573587,-52.0
1765761409.4303205,-0.3245339962311616,0.9970045827805935,-9.372142516948468,-0.5182961844501598,-1.5046614200396748,9.737218360692703,-0.00023186306777726035,-0.0010659039890359486,-0.001090830782496456,16.46318925995702,40.1045815573587,-52.0
1765761409.44514,-0.3245339962311616,0.9970045827805935,-9.372142516948468,-0.5182961844501598,-1.5046614200396748,9.737218360692703,-0.00023186306777726035,-0.0010659039890359486,-0.001090830782496456,16.46318925995702,40.1045815573587,-52.0
1765761409.4606209,-0.3245339962311616,0.9970045827805935,-9.372142516948468,-0.5193670231601447,-1.5042760517162541,9.73814885011394,-0.0006955892033317811,-0.0031977119671078463,0.001090830782496456,16.46318925995702,40.1045815573587,-52.0
1765761409.4751287,-0.3245339962311616,0.9970045827805935,-9.372142516948468,-0.5193686294463176,-1.5007509215145136,9.722042521892929,0.00023186306777726035,0.0010659039890359486,0.0,17.862488582424103,39.48038795266288,-53.0625
1765761409.4913712,-0.3245339962311616,0.9970045827805935,-9.372142516948468,-0.5200807233250923,-1.50167365863089,9.724704387210599,0.0010659039890359486,-0.00023186306777726035,0.002181661564992912,17.862488582424103,39.48038795266288,-53.0625
1765761409.5058503,-0.3245339962311616,0.9970045827805935,-9.372142516948468,-0.5200807233250923,-1.50167365863089,9.724704387210599,0.0010659039890359486,-0.00023186306777726035,0.002181661564992912,17.862488582424103,39.48038795266288,-53.0625
1765761409.522166,-0.3245339962311616,0.9970045827805935,-9.372142516948468,-0.5172859419594565,-1.5029987547874597,9.726475828844524,0.0,0.0,0.0,17.862488582424103,39.48038795266288,-53.0625
1765761409.537226,-0.3245339962311616,0.9970045827805935,-9.372142516948468,-0.5161370710936493,-1.5071492633647132,9.727654703463603,-0.0008340409212586882,0.001297767056813209,-0.001090830782496456,17.928912458467064,39.785746952352476,-53.5
1765761409.5515244,-0.3245339962311616,0.9970045827805935,-9.372142516948468,-0.5153725103661831,-1.5099113804586566,9.731784343061026,0.0017614931923677296,0.0029658488993305862,0.0,17.928912458467064,39.785746952352476,-53.5
1765761409.5660357,-0.3245339962311616,0.9970045827805935,-9.372142516948468,-0.5153725103661831,-1.5099113804586566,9.731784343061026,0.0017614931923677296,0.0029658488993305862,0.0,17.928912458467064,39.785746952352476,-53.5
1765761409.580646,-0.3245339962311616,0.9970045827805935,-9.372142516948468,-0.5148637037427573,-1.5117495385298063,9.721152125252736,0.00013845171792690718,-0.004495479023921055,0.001090830782496456,17.928912458467064,39.785746952352476,-53.5
1765761409.5952554,-0.3245339962311616,0.9970045827805935,-9.372142516948468,-0.5170827455926902,-1.508993115391965,9.720766726485614,-0.0012977670568132089,-0.0008340409212586883,0.0,16.3836714388135,41.20922603234628,-53.0625
1765761409.609944,-0.3245339962311616,0.9970045827805935,-9.372142516948468,-0.518559493155499,-1.5071587465849956,9.72051024791128,-0.00023186306777726035,-0.0010659039890359486,0.001090830782496456,16.3836714388135,41.20922603234628,-53.0625
1765761409.6264312,-0.3245339962311616,0.9970045827805935,-9.372142516948468,-0.518559493155499,-1.5071587465849956,9.72051024791128,-0.00023186306777726035,-0.0010659039890359486,0.001090830782496456,16.3836714388135,41.20922603234628,-53.0625
1765761409.6409876,-0.3245339962311616,0.9970045827805935,-9.372142516948468,-0.520253277075467,-1.50920666652255,9.720339564285114,-0.0025955341136264178,-0.0016680818425173767,0.001090830782496456,16.3836714388135,41.20922603234628,-53.0625
1765761409.911537,-0.3245339962311616,0.9970045827805935,-9.372142516948468,-0.5061518572290237,-1.509585772807668,9.72744931376847,0.0,0.0,0.0,16.970400510774006,40.37801893052607,-53.5
1765761409.93086,-0.3245339962311616,0.9970045827805935,-9.372142516948468,-0.5047477652808019,-1.5089752033012687,9.72161232339131,0.0,0.0,0.001090830782496456,16.970400510774006,40.37801893052607,-53.5
1765761409.9472136,-0.3245339962311616,0.9970045827805935,-9.372142516948468,-0.5047477652808019,-1.5089752033012687,9.72161232339131,0.0,0.0,0.001090830782496456,16.970400510774006,40.37801893052607,-53.5
1765761409.962476,-0.3245339962311616,0.9970045827805935,-9.372142516948468,-0.5077930545746153,-1.5111265230893487,9.717727871498766,0.0012977670568132089,0.0008340409212586883,0.002181661564992912,16.970400510774006,40.37801893052607,-53.5
1765761409.9774668,-0.3245339962311616,0.9970045827805935,-9.372142516948468,-0.5098196605815378,-1.5125582023764992,9.718487923863767,-0.0012977670568132089,-0.0008340409212586883,-0.001090830782496456,16.609321787251538,40.77637135667581,-52.0
1765761409.9917223,-0.3245339962311616,0.9970045827805935,-9.372142516948468,-0.5111683442404723,-1.5135109689491926,9.722338841929654,-0.0015296301245904694,-0.0018999449102946372,0.0,16.609321787251538,40.77637135667581,-52.0
1765761410.0077858,-0.3245339962311616,0.9970045827805935,-9.372142516948468,-0.5111683442404723,-1.5135109689491926,9.722338841929654,-0.0015296301245904694,-0.0018999449102946372,0.0,16.609321787251538,40.77637135667581,-52.0
1765761410.0222986,-0.3245339962311616,0.9970045827805935,-9.372142516948468,-0.51462352512379,-1.5101653276595994,9.724901584884927,-0.00023186306777726035,-0.0010659039890359486,0.0,16.609321787251538,40.77637135667581,-52.0
1765761410.0388722,-0.3245339962311616,0.9970045827805935,-9.372142516948468,-0.5169229094047385,-1.5079388407546372,9.71322661486467,-0.00023186306777726035,-0.0010659039890359486,0.002181661564992912,17.336831310401518,40.29831027927451,-52.75
1765761410.0532143,-0.3245339962311616,0.9970045827805935,-9.372142516948468,-0.5169229094047385,-1.5079388407546372,9.71322661486467,-0.00023186306777726035,-0.0010659039890359486,0.002181661564992912,17.336831310401518,40.29831027927451,-52.75
1765761410.067823,-0.3245339962311616,0.9970045827805935,-9.372142516948468,-0.5184531239579042,-1.5064571385908734,9.705457052734149,-0.00023186306777726035,-0.0010659039890359486,0.001090830782496456,17.336831310401518,40.29831027927451,-52.75
1765761410.0823557,-0.3245339962311616,0.9970045827805935,-9.372142516948468,-0.5136451457879887,-1.5101618040664764,9.71366694275726,0.0,0.0,0.0,17.336831310401518,40.29831027927451,-52.75
1765761410.096748,-0.3245339962311616,0.9970045827805935,-9.372142516948468,-0.5104454900245452,-1.5126272175566653,9.71913053285716,0.0,0.0,0.001090830782496456,17.40325518644448,40.6036692789641,-53.5
1765761410.1128318,-0.3245339962311616,0.9970045827805935,-9.372142516948468,-0.5104454900245452,-1.5126272175566653,9.71913053285716,0.0,0.0,0.001090830782496456,17.40325518644448,40.6036692789641,-53.5
1765761410.127481,-0.3245339962311616,0.9970045827805935,-9.372142516948468,-0.5090271797697402,-1.517536594581263,9.719421379329026,0.0,0.0,0.001090830782496456,17.40325518644448,40.6036692789641,-53.5
1765761410.1419804,-0.3245339962311616,0.9970045827805935,-9.372142516948468,-0.514620653913432,-1.5193816803232585,9.712924710992445,-0.002965848899330586,0.0017614931923677299,0.001090830782496456,17.40325518644448,40.6036692789641,-53.5
1765761410.409876,-0.3245339962311616,0.9970045827805935,-9.372142516948468,-0.5122331032197869,-1.502863847526335,9.723772252215301,-0.0008340409212586882,0.001297767056813209,0.0,17.25712265914996,39.931879479646994,-52.375
1765761410.4280226,-0.3245339962311616,0.9970045827805935,-9.372142516948468,-0.5120634384430364,-1.5037908122020969,9.715820168295826,-0.0008340409212586882,0.001297767056813209,0.0,17.25712265914996,39.931879479646994,-52.375
1765761410.442569,-0.3245339962311616,0.9970045827805935,-9.372142516948468,-0.5177768472908194,-1.4997169751250525,9.710528145278014,-0.00023186306777726035,-0.0010659039890359486,0.002181661564992912,16.970400510774006,40.37801893052607,-53.5
1765761410.4603639,-0.3245339962311616,0.9970045827805935,-9.372142516948468,-0.5177768472908194,-1.4997169751250525,9.710528145278014,-0.00023186306777726035,-0.0010659039890359486,0.002181661564992912,16.970400510774006,40.37801893052607,-53.5
1765761410.4750214,-0.3245339962311616,0.9970045827805935,-9.372142516948468,-0.5215790570560603,-1.4970058820580212,9.71035147478275,-0.0008340409212586882,0.001297767056813209,-0.002181661564992912,16.970400510774006,40.37801893052607,-53.5
1765761410.4900684,-0.3245339962311616,0.9970045827805935,-9.372142516948468,-0.5215517382072817,-1.4991813767074262,9.713579014249008,0.00023186306777726035,0.0010659039890359486,0.001090830782496456,16.970400510774006,40.37801893052607,-53.5
1765761410.5058427,-0.3245339962311616,0.9970045827805935,-9.372142516948468,-0.5182648859312406,-1.501340169008008,9.719072017417146,-0.0006021778534814279,0.0023636710458491577,-0.001090830782496456,17.03682438681697,40.683377930215656,-52.75
1765761410.5206633,-0.3245339962311616,0.9970045827805935,-9.372142516948468,-0.5182648859312406,-1.501340169008008,9.719072017417146,-0.0006021778534814279,0.0023636710458491577,-0.001090830782496456,17.03682438681697,40.683377930215656,-52.75
1765761410.5366216,-0.3245339962311616,0.9970045827805935,-9.372142516948468,-0.5182648859312406,-1.501340169008008,9.719072017417146,0.0,0.0,0.001090830782496456,17.03682438681697,40.683377930215656,-52.75
1765761410.5516057,-0.3245339962311616,0.9970045827805935,-9.372142516948468,-0.5167885473713509,-1.5060454930561051,9.722727549664675,-0.0008340409212586882,0.001297767056813209,0.002181661564992912,17.03682438681697,40.683377930215656,-52.75
1765761410.5664036,-0.3245339962311616,0.9970045827805935,-9.372142516948468,-0.5158060605515267,-1.5091768336482,9.731850488955073,0.0012977670568132089,0.0008340409212586883,-0.001090830782496456,17.336831310401518,40.29831027927451,-53.0625
1765761410.5807357,-0.3245339962311616,0.9970045827805935,-9.372142516948468,-0.5158060605515267,-1.5091768336482,9.731850488955073,0.0012977670568132089,0.0008340409212586883,-0.001090830782496456,17.336831310401518,40.29831027927451,-53.0625
1765761410.5968468,-0.3245339962311616,0.9970045827805935,-9.372142516948468,-0.5151522265480305,-1.511260705832873,9.731231479728285,-0.0006955892033317811,-0.0031977119671078463,0.0,17.336831310401518,40.29831027927451,-53.0625
1765761410.6115232,-0.3245339962311616,0.9970045827805935,-9.372142516948468,-0.5172747542965888,-1.508667802692775,9.737509759417282,0.0008340409212586882,-0.001297767056813209,0.0,17.336831310401518,40.29831027927451,-53.0625
1765761410.6266484,-0.3245339962311616,0.9970045827805935,-9.372142516948468,-0.5186872728030656,-1.5069422546176656,9.728307437588054,0.0,0.0,-0.001090830782496456,16.46318925995702,40.1045815573587,-52.75
1765761410.6410196,-0.3245339962311616,0.9970045827805935,-9.372142516948468,-0.5186872728030656,-1.5069422546176656,9.728307437588054,0.0,0.0,-0.001090830782496456,16.46318925995702,40.1045815573587,-52.75
1765761410.655924,-0.3245339962311616,0.9970045827805935,-9.372142516948468,-0.5196272880902604,-1.5057939216493152,9.72887361862201,0.0012977670568132089,0.0008340409212586883,-0.001090830782496456,16.46318925995702,40.1045815573587,-52.75
1765761410.9566042,-0.3245339962311616,0.9970045827805935,-9.372142516948468,-0.5289597638283495,-1.512233240237519,9.712545447525702,0.0010659039890359486,-0.00023186306777726035,0.0,17.25712265914996,39.931879479646994,-52.375
1765761410.972152,-0.3245339962311616,0.9970045827805935,-9.372142516948468,-0.5206371972549124,-1.514005735189036,9.72507441372312,0.0023636710458491577,0.000602177853481428,0.0,17.25712265914996,39.931879479646994,-52.375
1765761410.987237,-0.3245339962311616,0.9970045827805935,-9.372142516948468,-0.5150986221694502,-1.5151853107792044,9.73341230076978,0.0,0.0,0.0,17.25712265914996,39.931879479646994,-52.375
1765761411.0015588,-0.3245339962311616,0.9970045827805935,-9.372142516948468,-0.5150986221694502,-1.5151853107792044,9.73341230076978,0.0,0.0,0.0,17.25712265914996,39.931879479646994,-52.375
1765761411.0164993,-0.3245339962311616,0.9970045827805935,-9.372142516948468,-0.5146814342073632,-1.5152592802444689,9.73561595975171,0.0,0.0,0.0,16.824267983479483,39.70622913120896,-52.25
1765761411.031234,-0.3245339962311616,0.9970045827805935,-9.372142516948468,-0.5144038002788892,-1.5153085060973095,9.723702023358424,-0.0015296301245904694,-0.0018999449102946372,-0.001090830782496456,16.824267983479483,39.70622913120896,-52.25
1765761411.048291,-0.3245339962311616,0.9970045827805935,-9.372142516948468,-0.5174877098882142,-1.514630240439216,9.72915387860536,0.00023186306777726035,0.0010659039890359486,0.0,16.824267983479483,39.70622913120896,-52.25
1765761411.0628033,-0.3245339962311616,0.9970045827805935,-9.372142516948468,-0.5174877098882142,-1.514630240439216,9.72915387860536,0.00023186306777726035,0.0010659039890359486,0.0,16.824267983479483,39.70622913120896,-52.25
1765761411.0777617,-0.3245339962311616,0.9970045827805935,-9.372142516948468,-0.5188289923704226,-1.5109101903331283,9.719401580541705,0.0,0.0,0.002181661564992912,16.059675587810272,40.89593433355314,-53.0625
1765761411.0930204,-0.3245339962311616,0.9970045827805935,-9.372142516948468,-0.5197216008792251,-1.5084345385432094,9.716256646827969,-0.0012977670568132089,-0.0008340409212586883,0.001090830782496456,16.059675587810272,40.89593433355314,-53.0625
1765761411.1074524,-0.3245339962311616,0.9970045827805935,-9.372142516948468,-0.5137782780960422,-1.508209069758401,9.71416372857269,-0.0017614931923677296,-0.0029658488993305862,0.001090830782496456,16.059675587810272,40.89593433355314,-53.0625
1765761411.1217818,-0.3245339962311616,0.9970045827805935,-9.372142516948468,-0.5137782780960422,-1.508209069758401,9.71416372857269,-0.0017614931923677296,-0.0029658488993305862,0.001090830782496456,16.059675587810272,40.89593433355314,-53.0625
1765761411.1363325,-0.3245339962311616,0.9970045827805935,-9.372142516948468,-0.5098230631750995,-1.5080590228007622,9.712770914853229,-0.0010659039890359486,0.00023186306777726035,0.002181661564992912,17.557129582734508,39.54681182870585,-52.375
1765761411.1510146,-0.3245339962311616,0.9970045827805935,-9.372142516948468,-0.5079019367411277,-1.5112278401139385,9.721879348003634,-0.0006021778534814279,0.0023636710458491577,0.0,17.557129582734508,39.54681182870585,-52.375
1765761411.5409248,-0.3245339962311616,0.9970045827805935,-9.372142516948468,-0.5145199028530905,-1.5125646105298438,9.716790055045536,0.0004637261355545207,0.0021318079780718972,-0.003272492347489368,17.03682438681697,40.683377930215656,-52.75
1765761411.5581768,-0.3245339962311616,0.9970045827805935,-9.372142516948468,-0.5145199028530905,-1.5125646105298438,9.716790055045536,0.0004637261355545207,0.0021318079780718972,-0.003272492347489368,17.03682438681697,40.683377930215656,-52.75
1765761411.5751967,-0.3245339962311616,0.9970045827805935,-9.372142516948468,-0.5142963029670441,-1.5135152335036595,9.71451870578292,-0.0004637261355545207,-0.0021318079780718972,0.002181661564992912,17.03682438681697,40.683377930215656,-52.75
1765761411.5923412,-0.3245339962311616,0.9970045827805935,-9.372142516948468,-0.5101678029400343,-1.511590215499499,9.733077818465198,0.0,0.0,-0.001090830782496456,16.09140638422446,39.86564643371207,-52.375
1765761411.607736,-0.3245339962311616,0.9970045827805935,-9.372142516948468,-0.5074203322904265,-1.51030913752159,9.745428700636381,0.0006021778534814279,-0.0023636710458491577,0.001090830782496456,16.09140638422446,39.86564643371207,-52.375
1765761411.6260061,-0.3245339962311616,0.9970045827805935,-9.372142516948468,-0.5121292650390713,-1.5080345446113308,9.750302963045591,-0.001899944910294637,0.0015296301245904694,-0.001090830782496456,16.09140638422446,39.86564643371207,-52.375
1765761411.642869,-0.3245339962311616,0.9970045827805935,-9.372142516948468,-0.5121292650390713,-1.5080345446113308,9.750302963045591,-0.001899944910294637,0.0015296301245904694,-0.001090830782496456,16.09140638422446,39.86564643371207,-52.375
1765761411.658443,-0.3245339962311616,0.9970045827805935,-9.372142516948468,-0.515263007181069,-1.5065208284384208,9.733476059985925,0.0017614931923677296,0.0029658488993305862,-0.001090830782496456,16.396765383914055,39.79922255766911,-53.0625
1765761411.9359243,-0.3245339962311616,0.9970045827805935,-9.372142516948468,-0.5184107862240506,-1.5075211104915727,9.727044016817233,0.0010659039890359486,-0.00023186306777726035,-0.001090830782496456,16.46318925995702,40.1045815573587,-52.375
1765761411.9514472,-0.3245339962311616,0.9970045827805935,-9.372142516948468,-0.5194432893604833,-1.5061791437671568,9.728032826212365,-0.0010659039890359486,0.00023186306777726035,0.0,16.46318925995702,40.1045815573587,-52.375
1765761411.9662178,-0.3245339962311616,0.9970045827805935,-9.372142516948468,-0.5194432893604833,-1.5061791437671568,9.728032826212365,-0.0010659039890359486,0.00023186306777726035,0.0,16.46318925995702,40.1045815573587,-52.375
1765761411.9810603,-0.3245339962311616,0.9970045827805935,-9.372142516948468,-0.5208414335772336,-1.5085547517901587,9.732035979526419,0.0012977670568132089,0.0008340409212586883,0.002181661564992912,16.970400510774006,40.37801893052607,-53.0625
1765761411.9958222,-0.3245339962311616,0.9970045827805935,-9.372142516948468,-0.5152345391604858,-1.511557742218726,9.73470003333877,0.0008340409212586882,-0.001297767056813209,0.0,16.970400510774006,40.37801893052607,-53.0625
1765761412.010432,-0.3245339962311616,0.9970045827805935,-9.372142516948468,-0.5107921886459847,-1.5102875269159863,9.736472931391459,-0.0006021778534814279,0.0023636710458491577,0.0,16.970400510774006,40.37801893052607,-53.0625
1765761412.0247948,-0.3245339962311616,0.9970045827805935,-9.372142516948468,-0.5107921886459847,-1.5102875269159863,9.736472931391459,-0.0006021778534814279,0.0023636710458491577,0.0,16.970400510774006,40.37801893052607,-53.0625
1765761412.0399756,-0.3245339962311616,0.9970045827805935,-9.372142516948468,-0.5078358540028911,-1.5094422128212475,9.740997886948273,0.0010659039890359486,-0.00023186306777726035,-0.002181661564992912,16.317056732662497,39.432791758041596,-52.375
1765761412.0572886,-0.3245339962311616,0.9970045827805935,-9.372142516948468,-0.5098481431229543,-1.5114373127080563,9.737318970909628,-0.00023186306777726035,-0.0010659039890359486,0.001090830782496456,16.317056732662497,39.432791758041596,-52.375
1765761412.0738804,-0.3245339962311616,0.9970045827805935,-9.372142516948468,-0.5098481431229543,-1.5114373127080563,9.737318970909628,-0.00023186306777726035,-0.0010659039890359486,0.001090830782496456,16.317056732662497,39.432791758041596,-52.375
1765761412.0890532,-0.3245339962311616,0.9970045827805935,-9.372142516948468,-0.5111872990536142,-1.5127650293960015,9.734870693382096,-0.0008340409212586882,0.001297767056813209,0.001090830782496456,16.317056732662497,39.432791758041596,-52.375
1765761412.1035018,-0.3245339962311616,0.9970045827805935,-9.372142516948468,-0.5160581891667366,-1.5162062569943426,9.733241392036575,-0.0023636710458491577,-0.000602177853481428,0.0,15.993251711767307,40.59057533386355,-52.0
1765761412.11806,-0.3245339962311616,0.9970045827805935,-9.372142516948468,-0.5160581891667366,-1.5162062569943426,9.733241392036575,-0.0023636710458491577,-0.000602177853481428,0.0,15.993251711767307,40.59057533386355,-52.0
1765761412.1342943,-9.717159473179308,-4.916072139523808,125.23014163033385,-0.518588687212342,-1.515227683632657,9.7288119984843,-0.00023186306777726035,-0.0010659039890359486,0.003272492347489368,15.993251711767307,40.59057533386355,-52.0
1765761412.1493738,-0.3245339962311616,0.9970045827805935,-9.372142516948468,-0.5216947552207167,-1.5211137977665368,9.739244733384107,-0.0010659039890359486,0.00023186306777726035,0.001090830782496456,15.993251711767307,40.59057533386355,-52.0
1765761412.1645532,-0.3245339962311616,0.9970045827805935,-9.372142516948468,-0.5190710870693469,-1.5192046221089996,9.726116931674726,0.0012977670568132089,0.0008340409212586883,0.0,17.336831310401518,40.29831027927451,-52.75
1765761412.4959426,-0.3245339962311616,0.9970045827805935,-9.372142516948468,-0.5234221343904144,-1.5152768166427495,9.729225046459149,0.0010659039890359486,-0.00023186306777726035,0.0,16.542897911208573,40.471012356986215,-52.0
1765761412.524667,-0.3245339962311616,0.9970045827805935,-9.372142516948468,-0.5234221343904144,-1.5152768166427495,9.729225046459149,0.0010659039890359486,-0.00023186306777726035,0.0,16.542897911208573,40.471012356986215,-52.0
1765761412.5506465,-0.3245339962311616,0.9970045827805935,-9.372142516948468,-0.5227782855847715,-1.5113404795738505,9.736174500490002,-0.0008340409212586882,0.001297767056813209,0.0,16.824267983479483,39.70622913120896,-52.75
1765761412.5697997,-0.3245339962311616,0.9970045827805935,-9.372142516948468,-0.5223498113968785,-1.5087208912262644,9.734109061102407,0.0004637261355545207,0.0021318079780718972,-0.002181661564992912,16.824267983479483,39.70622913120896,-52.75
1765761412.6048598,-0.3245339962311616,0.9970045827805935,-9.372142516948468,-0.5223498113968785,-1.5087208912262644,9.734109061102407,0.0004637261355545207,0.0021318079780718972,-0.002181661564992912,16.824267983479483,39.70622913120896,-52.75
1765761412.6256838,-0.3245339962311616,0.9970045827805935,-9.372142516948468,-0.5220646666112061,-1.506977584443665,9.739424757677071,0.0010659039890359486,-0.00023186306777726035,-0.003272492347489368,16.542897911208573,40.471012356986215,-52.375
1765761412.6524444,-0.3245339962311616,0.9970045827805935,-9.372142516948468,-0.5186062340542666,-1.5065284581671279,9.73292695924533,-0.00023186306777726035,-0.0010659039890359486,0.001090830782496456,16.542897911208573,40.471012356986215,-52.375
1765761412.6684208,-0.3245339962311616,0.9970045827805935,-9.372142516948468,-0.5186062340542666,-1.5065284581671279,9.73292695924533,-0.00023186306777726035,-0.0010659039890359486,0.001090830782496456,16.542897911208573,40.471012356986215,-52.375
1765761413.0082157,-0.3245339962311616,0.9970045827805935,-9.372142516948468,-0.5148382780525611,-1.5146613760355467,9.752196166776452,-0.0010659039890359486,0.00023186306777726035,-0.001090830782496456,17.25712265914996,39.931879479646994,-52.0
1765761413.0269632,-0.3245339962311616,0.9970045827805935,-9.372142516948468,-0.5145081781058077,-1.5149106075252994,9.7447713010423,0.0,0.0,0.001090830782496456,17.25712265914996,39.931879479646994,-52.0
1765761413.0429165,-0.3245339962311616,0.9970045827805935,-9.372142516948468,-0.5175571721660519,-1.5143654433843616,9.733139912422768,-0.0015296301245904694,-0.0018999449102946372,-0.001090830782496456,17.25712265914996,39.931879479646994,-52.0
1765761413.0583258,-0.3245339962311616,0.9970045827805935,-9.372142516948468,-0.5175571721660519,-1.5143654433843616,9.733139912422768,-0.0015296301245904694,-0.0018999449102946372,-0.001090830782496456,17.25712265914996,39.931879479646994,-52.0
1765761413.0737693,-0.3245339962311616,0.9970045827805935,-9.372142516948468,-0.5130488998789482,-1.51542469256499,9.732089576642233,0.0017614931923677296,0.0029658488993305862,0.0,18.00862110971862,40.152177751979984,-53.5
1765761413.088741,-0.3245339962311616,0.9970045827805935,-9.372142516948468,-0.5133173669199323,-1.5154185861488394,9.724700366498666,-0.00023186306777726035,-0.0010659039890359486,0.001090830782496456,18.00862110971862,40.152177751979984,-53.5
1765761413.1044586,-0.3245339962311616,0.9970045827805935,-9.372142516948468,-0.5127850038234639,-1.512145850509754,9.719782929691009,0.0008340409212586882,-0.001297767056813209,-0.001090830782496456,18.00862110971862,40.152177751979984,-53.5
1765761413.119294,-0.3245339962311616,0.9970045827805935,-9.372142516948468,-0.5127850038234639,-1.512145850509754,9.719782929691009,0.0008340409212586882,-0.001297767056813209,-0.001090830782496456,18.00862110971862,40.152177751979984,-53.5
1765761413.1344316,-0.3245339962311616,0.9970045827805935,-9.372142516948468,-0.5124307221296497,-1.509967881500795,9.716510430426881,0.0015296301245904694,0.0018999449102946372,0.001090830782496456,16.609321787251538,40.77637135667581,-52.375
1765761413.1498215,-0.3245339962311616,0.9970045827805935,-9.372142516948468,-0.5161746484206226,-1.5110761144289215,9.721022842137454,0.00199335626014499,0.004031752888366534,-0.001090830782496456,16.609321787251538,40.77637135667581,-52.375
1765761413.1667888,-0.3245339962311616,0.9970045827805935,-9.372142516948468,-0.5153975176575175,-1.5125246559760865,9.7240258017239,0.0,0.0,0.0,16.609321787251538,40.77637135667581,-52.375
1765761413.1814456,-0.3245339962311616,0.9970045827805935,-9.372142516948468,-0.5153975176575175,-1.5125246559760865,9.7240258017239,0.0,0.0,0.0,16.609321787251538,40.77637135667581,-52.375
1765761413.468566,-0.3245339962311616,0.9970045827805935,-9.372142516948468,-0.5152065635264266,-1.5116010348062932,9.74027739099789,0.0012977670568132089,0.0008340409212586883,0.0,16.542897911208573,40.471012356986215,-53.0625
1765761413.4843986,-0.3245339962311616,0.9970045827805935,-9.372142516948468,-0.5180219398619973,-1.5121629597102126,9.726804153781158,-0.0008340409212586882,0.001297767056813209,0.0,16.542897911208573,40.471012356986215,-52.75
1765761413.5023987,-0.3245339962311616,0.9970045827805935,-9.372142516948468,-0.5180219398619973,-1.5121629597102126,9.726804153781158,-0.0008340409212586882,0.001297767056813209,0.0,16.542897911208573,40.471012356986215,-52.75
1765761413.5173957,-0.3245339962311616,0.9970045827805935,-9.372142516948468,-0.5133581975888045,-1.5139589642831985,9.721182976626663,-0.001899944910294637,0.0015296301245904694,0.0,16.542897911208573,40.471012356986215,-52.75
1765761413.5320637,-0.3245339962311616,0.9970045827805935,-9.372142516948468,-0.5175028978913803,-1.5170008073246453,9.71744214602301,0.0,0.0,0.0,16.542897911208573,40.471012356986215,-52.75
1765761413.5466788,-0.3245339962311616,0.9970045827805935,-9.372142516948468,-0.5175028978913803,-1.5170008073246453,9.71744214602301,0.0,0.0,0.0,16.542897911208573,40.471012356986215,-52.75
1765761413.56472,-0.3245339962311616,0.9970045827805935,-9.372142516948468,-0.5195501247301384,-1.515756448001765,9.714952665044096,-0.0010659039890359486,0.00023186306777726035,0.002181661564992912,16.303962787561947,40.84279523271877,-53.0625
1765761413.5828147,-0.3245339962311616,0.9970045827805935,-9.372142516948468,-0.5234701782963902,-1.510948643972172,9.703260608139994,-0.0010659039890359486,0.00023186306777726035,-0.002181661564992912,16.303962787561947,40.84279523271877,-53.0625
1765761413.5979054,-0.3245339962311616,0.9970045827805935,-9.372142516948468,-0.5260789301548632,-1.5077491040971678,9.695479674879147,0.0010659039890359486,-0.00023186306777726035,0.001090830782496456,16.303962787561947,40.84279523271877,-53.0625
1765761413.6124666,-0.3245339962311616,0.9970045827805935,-9.372142516948468,-0.5260789301548632,-1.5077491040971678,9.695479674879147,0.0010659039890359486,-0.00023186306777726035,0.001090830782496456,16.303962787561947,40.84279523271877,-53.0625
1765761413.6273515,-0.3245339962311616,0.9970045827805935,-9.372142516948468,-0.5252573784009288,-1.5095995428521753,9.690301550712773,-0.0015296301245904694,-0.0018999449102946372,0.001090830782496456,16.396765383914055,39.79922255766911,-52.75
1765761413.6422815,-0.3245339962311616,0.9970045827805935,-9.372142516948468,-0.5247106448860198,-1.5108309891728773,9.696890902045448,0.0006021778534814279,-0.0023636710458491577,0.0,16.396765383914055,39.79922255766911,-52.75
1765761413.658191,-0.3245339962311616,0.9970045827805935,-9.372142516948468,-0.5178094560645607,-1.5130725527696878,9.701276041749464,0.0008340409212586882,-0.001297767056813209,0.001090830782496456,16.396765383914055,39.79922255766911,-52.75
1765761413.6727154,-0.3245339962311616,0.9970045827805935,-9.372142516948468,-0.5178094560645607,-1.5130725527696878,9.701276041749464,0.0008340409212586882,-0.001297767056813209,0.001090830782496456,16.396765383914055,39.79922255766911,-52.75
1765761413.6877656,-0.3245339962311616,0.9970045827805935,-9.372142516948468,-0.5157744389692905,-1.5105845915028386,9.707539414944588,-0.00023186306777726035,-0.0010659039890359486,0.0,17.336831310401518,40.29831027927451,-52.375
1765761413.961842,-0.3245339962311616,0.9970045827805935,-9.372142516948468,-0.5195547142958296,-1.505949411791385,9.71372803147436,0.0006021778534814279,-0.0023636710458491577,-0.001090830782496456,16.46318925995702,40.1045815573587,-52.375
1765761413.9783733,-0.3245339962311616,0.9970045827805935,-9.372142516948468,-0.5183579386529279,-1.5123815645271772,9.712480963301347,-0.0004637261355545207,-0.0021318079780718972,-0.002181661564992912,16.46318925995702,40.1045815573587,-52.375
1765761413.9931712,-0.3245339962311616,0.9970045827805935,-9.372142516948468,-0.5183579386529279,-1.5123815645271772,9.712480963301347,-0.0004637261355545207,-0.0021318079780718972,-0.002181661564992912,16.46318925995702,40.1045815573587,-52.375
1765761414.0110178,-0.3245339962311616,0.9970045827805935,-9.372142516948468,-0.5175614978314368,-1.516662090320993,9.711651053362871,0.0008340409212586882,-0.001297767056813209,0.0,16.824267983479483,39.70622913120896,-52.375
1765761414.025796,-0.3245339962311616,0.9970045827805935,-9.372142516948468,-0.5203001472489117,-1.5187997075069015,9.717788980984155,0.0016680818425173765,-0.002595534113626418,0.0,16.824267983479483,39.70622913120896,-52.375
1765761414.040576,-0.3245339962311616,0.9970045827805935,-9.372142516948468,-0.5239693099043333,-1.5129738991774042,9.721873703250976,-0.0006021778534814279,0.0023636710458491577,0.001090830782496456,16.824267983479483,39.70622913120896,-52.375
1765761414.055087,-0.3245339962311616,0.9970045827805935,-9.372142516948468,-0.5239693099043333,-1.5129738991774042,9.721873703250976,-0.0006021778534814279,0.0023636710458491577,0.001090830782496456,16.824267983479483,39.70622913120896,-52.375
1765761414.0707748,-0.3245339962311616,0.9970045827805935,-9.372142516948468,-0.5264110966642839,-1.5090968888126668,9.724592040290208,0.00023186306777726035,0.0010659039890359486,0.0,17.336831310401518,40.29831027927451,-53.0625
1765761414.087361,-0.3245339962311616,0.9970045827805935,-9.372142516948468,-0.5214987347017849,-1.5079388315505176,9.719710839809363,0.0,0.0,-0.001090830782496456,17.336831310401518,40.29831027927451,-53.0625
1765761414.1019537,-0.3245339962311616,0.9970045827805935,-9.372142516948468,-0.5214987347017849,-1.5079388315505176,9.719710839809363,0.0,0.0,-0.001090830782496456,17.336831310401518,40.29831027927451,-53.0625
1765761414.1172,-0.3245339962311616,0.9970045827805935,-9.372142516948468,-0.5116922689157197,-1.5085902072054445,9.723152678830582,-0.00023186306777726035,-0.0010659039890359486,0.002181661564992912,17.336831310401518,40.29831027927451,-53.0625
1765761414.131954,-0.3245339962311616,0.9970045827805935,-9.372142516948468,-0.5051661754804939,-1.5090236904274552,9.715407849129384,0.0,0.0,0.0,16.74455933222793,39.33979833158145,-52.375
1765761414.1479623,-0.3245339962311616,0.9970045827805935,-9.372142516948468,-0.5138978207499931,-1.506468069016299,9.72028908660061,-0.0008340409212586882,0.001297767056813209,0.0,16.74455933222793,39.33979833158145,-52.375
1765761414.1644962,-0.3245339962311616,0.9970045827805935,-9.372142516948468,-0.5138978207499931,-1.506468069016299,9.72028908660061,-0.0008340409212586882,0.001297767056813209,0.0,16.74455933222793,39.33979833158145,-52.375
1765761414.1802475,-0.3245339962311616,0.9970045827805935,-9.372142516948468,-0.5229773050253264,-1.504056306602066,9.720192383903397,0.0,0.0,0.0,16.74455933222793,39.33979833158145,-52.375
1765761414.195141,-0.3245339962311616,0.9970045827805935,-9.372142516948468,-0.5297306252993457,-1.505719977543896,9.720128029338643,-0.0004637261355545207,-0.0021318079780718972,0.0,16.157830260267424,40.17100543340167,-52.375
1765761414.4895928,-0.3245339962311616,0.9970045827805935,-9.372142516948468,-0.5127176805306815,-1.5071867058508328,9.720244026670604,-0.0008340409212586882,0.001297767056813209,-0.001090830782496456,17.25712265914996,39.931879479646994,-52.75
1765761414.5062823,-0.3245339962311616,0.9970045827805935,-9.372142516948468,-0.5156545911177038,-1.505956601214289,9.72350750873065,0.0008340409212586882,-0.001297767056813209,0.0,17.25712265914996,39.931879479646994,-52.75
1765761414.5230925,-0.3245339962311616,0.9970045827805935,-9.372142516948468,-0.5156545911177038,-1.505956601214289,9.72350750873065,0.0008340409212586882,-0.001297767056813209,0.0,17.25712265914996,39.931879479646994,-52.75
1765761414.5391047,-0.3245339962311616,0.9970045827805935,-9.372142516948468,-0.5143404004185759,-1.5058490052331082,9.715643984464169,-0.0023636710458491577,-0.000602177853481428,-0.001090830782496456,17.25712265914996,39.931879479646994,-52.75
1765761414.5548015,-0.3245339962311616,0.9970045827805935,-9.372142516948468,-0.5069284774140775,-1.5071994511360978,9.710410896906147,-0.0017614931923677296,-0.0029658488993305862,0.003272492347489368,17.557129582734508,39.54681182870585,-53.1875
1765761414.5709927,-0.3245339962311616,0.9970045827805935,-9.372142516948468,-0.501995925451189,-1.5080981577990684,9.703583223886383,0.0023636710458491577,0.000602177853481428,0.0,17.557129582734508,39.54681182870585,-53.1875
1765761414.586445,-0.3245339962311616,0.9970045827805935,-9.372142516948468,-0.501995925451189,-1.5080981577990684,9.703583223886383,0.0023636710458491577,0.000602177853481428,0.0,17.557129582734508,39.54681182870585,-53.1875
1765761414.6065233,-0.3245339962311616,0.9970045827805935,-9.372142516948468,-0.5019820391074526,-1.5079852121307942,9.719110154005751,-0.0008340409212586882,0.001297767056813209,0.0,17.557129582734508,39.54681182870585,-53.1875
1765761414.6222277,-0.3245339962311616,0.9970045827805935,-9.372142516948468,-0.5045304448748973,-1.503930351249623,9.726098040845697,0.0010659039890359486,-0.00023186306777726035,0.0,16.89069185952245,40.01158813089855,-52.75
1765761414.6377215,-0.3245339962311616,0.9970045827805935,-9.372142516948468,-0.5134747491335446,-1.5030785086897782,9.73074840147787,-0.0008340409212586882,0.001297767056813209,0.0,16.89069185952245,40.01158813089855,-52.75
1765761414.6531873,-0.3245339962311616,0.9970045827805935,-9.372142516948468,-0.5194270837032492,-1.5025116169819064,9.733843164530649,-0.00023186306777726035,-0.0010659039890359486,0.0,16.89069185952245,40.01158813089855,-52.75
1765761414.6709042,-0.3245339962311616,0.9970045827805935,-9.372142516948468,-0.5194270837032492,-1.5025116169819064,9.733843164530649,-0.00023186306777726035,-0.0010659039890359486,0.0,16.89069185952245,40.01158813089855,-52.75
1765761414.6869843,-0.3245339962311616,0.9970045827805935,-9.372142516948468,-0.5110246332313222,-1.5082471284233432,9.725867359649548,0.0004637261355545207,0.0021318079780718972,-0.001090830782496456,16.157830260267424,40.17100543340167,-52.0
1765761414.7016275,-0.3245339962311616,0.9970045827805935,-9.372142516948468,-0.5054328963037765,-1.5120640472177584,9.720559550596754,-0.0008340409212586882,0.001297767056813209,0.002181661564992912,16.157830260267424,40.17100543340167,-52.0
1765761414.9854965,-1.2127828060413308,0.9249020341510245,-9.386930281799602,-0.5147713371024838,-1.5052650029843755,9.720947148106566,0.0010659039890359486,-0.00023186306777726035,0.002181661564992912,17.40325518644448,40.6036692789641,1994.8125
1765761415.0039556,-0.3245339962311616,0.9970045827805935,-9.372142516948468,-0.5046576139892596,-1.510790500963919,9.720630316484582,-0.0006021778534814279,0.0023636710458491577,-0.001090830782496456,17.40325518644448,40.6036692789641,1994.8125
1765761415.0209532,-0.3245339962311616,0.9970045827805935,-9.372142516948468,-0.4979270442350987,-1.5144676581454488,9.733799915408671,0.0015296301245904694,0.0018999449102946372,0.001090830782496456,17.190698783106996,39.62652047995741,-52.75
1765761415.036373,-0.3245339962311616,0.9970045827805935,-9.372142516948468,-0.4979270442350987,-1.5144676581454488,9.733799915408671,0.0015296301245904694,0.0018999449102946372,0.001090830782496456,17.190698783106996,39.62652047995741,-52.75
1765761415.0512736,-0.3245339962311616,0.9970045827805935,-9.372142516948468,-0.5065226127984966,-1.51407066552014,9.742564136378592,-0.0006955892033317811,-0.0031977119671078463,0.001090830782496456,17.190698783106996,39.62652047995741,-52.75
1765761415.0671685,-0.3245339962311616,0.9970045827805935,-9.372142516948468,-0.5148005146327262,-1.5098267745620748,9.748396627531312,-0.0012977670568132089,-0.0008340409212586883,0.001090830782496456,17.190698783106996,39.62652047995741,-52.75
1765761415.082912,-0.3245339962311616,0.9970045827805935,-9.372142516948468,-0.5235780377205339,-1.5062914876235807,9.738897638410974,0.0021318079780718972,-0.0004637261355545207,-0.002181661564992912,16.970400510774006,40.37801893052607,-52.0
1765761415.098675,-0.3245339962311616,0.9970045827805935,-9.372142516948468,-0.5261507093967621,-1.5046498185710253,9.742611502384008,0.0,0.0,-0.001090830782496456,16.970400510774006,40.37801893052607,-52.0
1765761415.1151602,-0.3245339962311616,0.9970045827805935,-9.372142516948468,-0.5261507093967621,-1.5046498185710253,9.742611502384008,0.0,0.0,-0.001090830782496456,16.970400510774006,40.37801893052607,-52.0
1765761415.130427,-0.3245339962311616,0.9970045827805935,-9.372142516948468,-0.5147881061092647,-1.5064014058082746,9.741737925664165,0.0012977670568132089,0.0008340409212586883,0.001090830782496456,16.970400510774006,40.37801893052607,-52.0
1765761415.144948,-0.3245339962311616,0.9970045827805935,-9.372142516948468,-0.5079374454633007,-1.510835739435503,9.7411565701156,0.0012977670568132089,0.0008340409212586883,0.001090830782496456,15.913543060515751,40.22414453423604,-52.375
1765761415.1606867,-0.3245339962311616,0.9970045827805935,-9.372142516948468,-0.5040894322435752,-1.5170554108170213,9.740769684492196,-0.0010659039890359486,0.00023186306777726035,0.0,15.913543060515751,40.22414453423604,-52.375
1765761415.1779535,-0.3245339962311616,0.9970045827805935,-9.372142516948468,-0.5040894322435752,-1.5170554108170213,9.740769684492196,-0.0010659039890359486,0.00023186306777726035,0.0,15.913543060515751,40.22414453423604,-52.375
1765761415.1936507,-0.3245339962311616,0.9970045827805935,-9.372142516948468,-0.5073549412924028,-1.51650381092925,9.72378665789502,-0.00023186306777726035,-0.0010659039890359486,-0.001090830782496456,15.913543060515751,40.22414453423604,-52.375
1765761415.210367,-0.3245339962311616,0.9970045827805935,-9.372142516948468,-0.5160654448609722,-1.5147146775391727,9.719174866822076,0.0,0.0,-0.001090830782496456,16.059675587810272,40.89593433355314,-52.75
1765761415.4941506,-0.3245339962311616,0.9970045827805935,-9.372142516948468,-0.5011698034196775,-1.5156278262148124,9.74911413746827,-0.0012977670568132089,-0.0008340409212586883,0.0,16.46318925995702,40.1045815573587,-53.0625
1765761415.5117412,-0.3245339962311616,0.9970045827805935,-9.372142516948468,-0.5079696078985704,-1.5115740725230244,9.746065356673547,-0.00023186306777726035,-0.0010659039890359486,0.001090830782496456,16.46318925995702,40.1045815573587,-53.0625
1765761415.5276344,-0.3245339962311616,0.9970045827805935,-9.372142516948468,-0.5079696078985704,-1.5115740725230244,9.746065356673547,-0.00023186306777726035,-0.0010659039890359486,0.001090830782496456,16.46318925995702,40.1045815573587,-53.0625
1765761415.5427186,-0.3245339962311616,0.9970045827805935,-9.372142516948468,-0.5124948018204805,-1.5088763447245355,9.744036427111773,0.0003703147857041675,-0.0034295750348851068,0.0,16.46318925995702,40.1045815573587,-52.375
1765761415.557606,-0.3245339962311616,0.9970045827805935,-9.372142516948468,-0.512237595938433,-1.507792061923505,9.74268619715304,0.0010659039890359486,-0.00023186306777726035,0.0,16.46318925995702,40.1045815573587,-52.375
1765761415.573587,-0.3245339962311616,0.9970045827805935,-9.372142516948468,-0.508797756409758,-1.5077815087449216,9.741787634198559,0.0015296301245904694,0.0018999449102946372,-0.002181661564992912,16.46318925995702,40.1045815573587,-52.375
1765761415.5882554,-0.3245339962311616,0.9970045827805935,-9.372142516948468,-0.508797756409758,-1.5077815087449216,9.741787634198559,0.0015296301245904694,0.0018999449102946372,-0.002181661564992912,16.46318925995702,40.1045815573587,-52.375
1765761415.6032298,-0.3245339962311616,0.9970045827805935,-9.372142516948468,-0.4999712378542493,-1.509196535549001,9.724464092053362,-0.0012977670568132089,-0.0008340409212586883,0.001090830782496456,17.03682438681697,40.683377930215656,-60.375
1765761415.6180098,-0.3245339962311616,0.9970045827805935,-9.372142516948468,-0.494097288354231,-1.5101382200802307,9.726315915101656,0.0012977670568132089,0.0008340409212586883,0.002181661564992912,17.03682438681697,40.683377930215656,-60.375
1765761415.634409,-0.3245339962311616,0.9970045827805935,-9.372142516948468,-0.506531600015036,-1.507209776050109,9.710822724117481,0.0004637261355545207,0.0021318079780718972,-0.001090830782496456,17.03682438681697,40.683377930215656,-60.375
1765761415.6496675,-0.3245339962311616,0.9970045827805935,-9.372142516948468,-0.506531600015036,-1.507209776050109,9.710822724117481,0.0004637261355545207,0.0021318079780718972,-0.001090830782496456,17.03682438681697,40.683377930215656,-60.375
1765761415.6645668,-0.3245339962311616,0.9970045827805935,-9.372142516948468,-0.5140954706116694,-1.5019922573735758,9.713892625417072,-0.0008340409212586882,0.001297767056813209,-0.001090830782496456,17.336831310401518,40.29831027927451,-52.75
1765761415.6800284,-0.3245339962311616,0.9970045827805935,-9.372142516948468,-0.519840166913028,-1.501788728865196,9.705900275316948,0.0004637261355545207,0.0021318079780718972,0.0,17.336831310401518,40.29831027927451,-52.75
1765761415.6950927,-0.3245339962311616,0.9970045827805935,-9.372142516948468,-0.5171258543544189,-1.5030753327429713,9.710616790727673,-0.0008340409212586882,0.001297767056813209,-0.002181661564992912,17.336831310401518,40.29831027927451,-52.75
1765761415.7100394,-0.3245339962311616,0.9970045827805935,-9.372142516948468,-0.5171258543544189,-1.5030753327429713,9.710616790727673,-0.0008340409212586882,0.001297767056813209,-0.002181661564992912,17.336831310401518,40.29831027927451,-52.75
1765761416.0274034,-0.3245339962311616,0.9970045827805935,-9.372142516948468,-0.5087583157134467,-1.524281739203161,9.748139726310765,0.0,0.0,0.0,17.03682438681697,40.683377930215656,-54.0
1765761416.0459876,-0.3245339962311616,0.9970045827805935,-9.372142516948468,-0.5046357122253258,-1.526003573460739,9.735381561811156,0.0010659039890359486,-0.00023186306777726035,0.002181661564992912,17.190698783106996,39.62652047995741,-52.0
1765761416.0624578,-0.3245339962311616,0.9970045827805935,-9.372142516948468,-0.5046357122253258,-1.526003573460739,9.735381561811156,0.0010659039890359486,-0.00023186306777726035,0.002181661564992912,17.190698783106996,39.62652047995741,-52.0
1765761416.0791826,-0.3245339962311616,0.9970045827805935,-9.372142516948468,-0.5070074596046408,-1.5191900413237673,9.726891145854701,0.0,0.0,-0.001090830782496456,17.190698783106996,39.62652047995741,-52.0
1765761416.0941226,-0.3245339962311616,0.9970045827805935,-9.372142516948468,-0.511854502878771,-1.5139446868854838,9.724585980587161,0.0008340409212586882,-0.001297767056813209,0.001090830782496456,17.190698783106996,39.62652047995741,-52.0
1765761416.109591,-0.3245339962311616,0.9970045827805935,-9.372142516948468,-0.511854502878771,-1.5139446868854838,9.724585980587161,0.0008340409212586882,-0.001297767056813209,0.001090830782496456,17.190698783106996,39.62652047995741,-52.0
1765761416.1244864,-0.3245339962311616,0.9970045827805935,-9.372142516948468,-0.5150801560326835,-1.5104539621012545,9.736432365681273,0.0010659039890359486,-0.00023186306777726035,0.001090830782496456,17.25712265914996,39.931879479646994,-52.375
1765761416.1412501,-0.3245339962311616,0.9970045827805935,-9.372142516948468,-0.5172267921737056,-1.5081309237513008,9.730935555799334,-0.00023186306777726035,-0.0010659039890359486,0.0,17.25712265914996,39.931879479646994,-52.375
1765761416.1576693,-0.3245339962311616,0.9970045827805935,-9.372142516948468,-0.5172267921737056,-1.5081309237513008,9.730935555799334,-0.00023186306777726035,-0.0010659039890359486,0.0,17.25712265914996,39.931879479646994,-52.375
1765761416.176091,-0.3245339962311616,0.9970045827805935,-9.372142516948468,-0.5153866826587086,-1.5072959925927152,9.727277490226294,0.0,0.0,0.0,17.25712265914996,39.931879479646994,-52.375
1765761416.193883,-0.3245339962311616,0.9970045827805935,-9.372142516948468,-0.5141621103318482,-1.5067403552334686,9.721497976743388,0.00013845171792690718,-0.004495479023921055,0.0,17.336831310401518,40.29831027927451,-52.75
1765761416.2113647,-0.3245339962311616,0.9970045827805935,-9.372142516948468,-0.5141621103318482,-1.5067403552334686,9.721497976743388,0.00013845171792690718,-0.004495479023921055,0.0,17.336831310401518,40.29831027927451,-52.75
1765761416.495167,-0.3245339962311616,0.9970045827805935,-9.372142516948468,-0.5183122246805143,-1.5067780627293519,9.726426311161676,0.0016680818425173765,-0.002595534113626418,0.0,16.609321787251538,40.77637135667581,-53.1875
1765761416.5130842,-0.3245339962311616,0.9970045827805935,-9.372142516948468,-0.5193776977542646,-1.5056846537817863,9.724276638291496,0.0010659039890359486,-0.00023186306777726035,0.0,16.609321787251538,40.77637135667581,-53.1875
1765761416.530634,-0.3245339962311616,0.9970045827805935,-9.372142516948468,-0.5193776977542646,-1.5056846537817863,9.724276638291496,0.0010659039890359486,-0.00023186306777726035,0.0,16.609321787251538,40.77637135667581,-53.1875
1765761416.5458372,-0.3245339962311616,0.9970045827805935,-9.372142516948468,-0.5233554300700817,-1.5042459774280894,9.72284605500981,-0.0012977670568132089,-0.0008340409212586883,0.002181661564992912,16.89069185952245,40.01158813089855,-52.0
1765761416.5603595,-0.3245339962311616,0.9970045827805935,-9.372142516948468,-0.5260025664920764,-1.5032885543857721,9.72523912952383,-0.0006021778534814279,0.0023636710458491577,0.001090830782496456,16.89069185952245,40.01158813089855,-52.0
1765761416.5776327,-0.3245339962311616,0.9970045827805935,-9.372142516948468,-0.5244955343231122,-1.5033624249594961,9.720141470465878,-0.00023186306777726035,-0.0010659039890359486,0.001090830782496456,16.89069185952245,40.01158813089855,-52.0
1765761416.5933435,-0.3245339962311616,0.9970045827805935,-9.372142516948468,-0.5244955343231122,-1.5033624249594961,9.720141470465878,-0.00023186306777726035,-0.0010659039890359486,0.001090830782496456,16.89069185952245,40.01158813089855,-52.0
1765761416.6098022,-0.3245339962311616,0.9970045827805935,-9.372142516948468,-0.524203646162589,-1.5066802568884714,9.730129482136672,0.0010659039890359486,-0.00023186306777726035,-0.001090830782496456,17.70326211002903,40.21860162802295,-52.75
1765761416.6263597,-0.3245339962311616,0.9970045827805935,-9.372142516948468,-0.5207407259650146,-1.509599261887863,9.736776392330183,-0.00023186306777726035,-0.0010659039890359486,0.001090830782496456,17.70326211002903,40.21860162802295,-52.75
1765761416.6433914,-0.3245339962311616,0.9970045827805935,-9.372142516948468,-0.5184361912568822,-1.5115418271075363,9.741199836813113,-0.00023186306777726035,-0.0010659039890359486,0.0,17.70326211002903,40.21860162802295,-52.75
1765761416.6590486,-0.3245339962311616,0.9970045827805935,-9.372142516948468,-0.5184361912568822,-1.5115418271075363,9.741199836813113,-0.00023186306777726035,-0.0010659039890359486,0.0,17.70326211002903,40.21860162802295,-52.75
1765761416.6757317,-0.3245339962311616,0.9970045827805935,-9.372142516948468,-0.5169025491519595,-1.5128345825613532,9.744143589703391,0.00023186306777726035,0.0010659039890359486,0.0,16.609321787251538,40.77637135667581,-53.1875
1765761416.6913352,-0.3245339962311616,0.9970045827805935,-9.372142516948468,-0.5151709025497684,-1.5104262249874933,9.732722177538719,-0.0021318079780718972,0.0004637261355545207,0.0,16.609321787251538,40.77637135667581,-53.1875
1765761416.7059193,-0.3245339962311616,0.9970045827805935,-9.372142516948468,-0.5238245267418215,-1.5066904151853968,9.731811578743303,-0.0010659039890359486,0.00023186306777726035,0.0,16.609321787251538,40.77637135667581,-53.1875
1765761416.720479,-0.3245339962311616,0.9970045827805935,-9.372142516948468,-0.5238245267418215,-1.5066904151853968,9.731811578743303,-0.0010659039890359486,0.00023186306777726035,0.0,16.609321787251538,40.77637135667581,-53.1875
1765761417.01314,-0.3245339962311616,0.9970045827805935,-9.372142516948468,-0.5215965517170384,-1.5059375477059957,9.731794628554011,0.0012977670568132089,0.0008340409212586883,0.0,17.110990131855438,39.26008968032989,-52.75
1765761417.0298836,-0.3245339962311616,0.9970045827805935,-9.372142516948468,-0.5222744056220043,-1.508393972310261,9.73119430525538,-0.0010659039890359486,0.00023186306777726035,0.0,17.110990131855438,39.26008968032989,-52.75
1765761417.0449355,-0.3245339962311616,0.9970045827805935,-9.372142516948468,-0.5222744056220043,-1.508393972310261,9.73119430525538,-0.0010659039890359486,0.00023186306777726035,0.0,17.110990131855438,39.26008968032989,-52.75
1765761417.0602686,-0.3245339962311616,0.9970045827805935,-9.372142516948468,-0.522725509823635,-1.510028695444339,9.727449685098872,0.00023186306777726035,0.0010659039890359486,-0.001090830782496456,17.110990131855438,39.26008968032989,-52.75
1765761417.0748887,-0.3245339962311616,0.9970045827805935,-9.372142516948468,-0.5190460178300357,-1.5085589384549332,9.721612570507546,0.0,0.0,0.001090830782496456,16.970400510774006,40.37801893052607,-52.375
1765761417.0901453,-0.3245339962311616,0.9970045827805935,-9.372142516948468,-0.5100600132362133,-1.509002881423285,9.71772803595186,0.00023186306777726035,0.0010659039890359486,0.001090830782496456,16.970400510774006,40.37801893052607,-52.375
1765761417.1066613,-0.3245339962311616,0.9970045827805935,-9.372142516948468,-0.5100600132362133,-1.509002881423285,9.71772803595186,0.00023186306777726035,0.0010659039890359486,0.001090830782496456,16.970400510774006,40.37801893052607,-52.375
1765761417.1229105,-0.3245339962311616,0.9970045827805935,-9.372142516948468,-0.5106172713339738,-1.5078762706830153,9.715142921598146,0.0012977670568132089,0.0008340409212586883,-0.001090830782496456,16.970400510774006,40.37801893052607,-52.375
1765761417.139209,-0.3245339962311616,0.9970045827805935,-9.372142516948468,-0.5175254641477534,-1.5057044739938927,9.716767668580687,-0.00023186306777726035,-0.0010659039890359486,0.001090830782496456,16.396765383914055,39.79922255766911,-54.0
1765761417.1538806,-0.3245339962311616,0.9970045827805935,-9.372142516948468,-0.5175254641477534,-1.5057044739938927,9.716767668580687,-0.00023186306777726035,-0.0010659039890359486,0.001090830782496456,16.396765383914055,39.79922255766911,-54.0
1765761417.168809,-0.3245339962311616,0.9970045827805935,-9.372142516948468,-0.525391461183104,-1.5035481426445703,9.714503807840636,0.0,0.0,0.001090830782496456,16.396765383914055,39.79922255766911,-54.0
1765761417.1838884,-0.3245339962311616,0.9970045827805935,-9.372142516948468,-0.527357522453835,-1.5028241531326654,9.716342345514432,-0.0010659039890359486,0.00023186306777726035,-0.002181661564992912,16.396765383914055,39.79922255766911,-54.0
1765761417.1989346,-0.3245339962311616,0.9970045827805935,-9.372142516948468,-0.527357522453835,-1.5028241531326654,9.716342345514432,-0.0010659039890359486,0.00023186306777726035,-0.002181661564992912,16.396765383914055,39.79922255766911,-54.0
1765761417.2155025,-0.3245339962311616,0.9970045827805935,-9.372142516948468,-0.5188598986051121,-1.5044754209397952,9.724256095213171,0.0,0.0,-0.002181661564992912,16.46318925995702,40.1045815573587,-52.375
1765761417.2331934,-0.3245339962311616,0.9970045827805935,-9.372142516948468,-0.5106471778843845,-1.5095540180201905,9.729522607235305,0.0006021778534814279,-0.0023636710458491577,0.002181661564992912,16.46318925995702,40.1045815573587,-52.375
1765761417.5255015,-0.3245339962311616,0.9970045827805935,-9.372142516948468,-0.514685976214694,-1.506846801740514,9.72790299792927,0.0,0.0,0.0,16.970400510774006,40.37801893052607,-53.1875
1765761417.541556,-0.3245339962311616,0.9970045827805935,-9.372142516948468,-0.514685976214694,-1.506846801740514,9.72790299792927,0.0,0.0,0.0,16.970400510774006,40.37801893052607,-53.1875
1765761417.5566041,-0.3245339962311616,0.9970045827805935,-9.372142516948468,-0.5071584542460595,-1.5078634735656593,9.728604468546978,-0.0004637261355545207,-0.0021318079780718972,0.0,16.970400510774006,40.37801893052607,-53.1875
1765761417.571699,-0.3245339962311616,0.9970045827805935,-9.372142516948468,-0.5054176443512137,-1.507829032395055,9.732416401114442,0.0012977670568132089,0.0008340409212586883,0.002181661564992912,18.502547585327015,40.36454332520943,-52.5
1765761417.5886,-0.3245339962311616,0.9970045827805935,-9.372142516948468,-0.5154872203009057,-1.512210381215642,9.731608087948691,0.00222521932792225,0.005097656877402483,-0.001090830782496456,18.502547585327015,40.36454332520943,-52.5
1765761417.6050813,-0.3245339962311616,0.9970045827805935,-9.372142516948468,-0.5154872203009057,-1.512210381215642,9.731608087948691,0.00222521932792225,0.005097656877402483,-0.001090830782496456,18.502547585327015,40.36454332520943,-52.5
1765761417.6217852,-0.3245339962311616,0.9970045827805935,-9.372142516948468,-0.521477385697622,-1.5118574480255191,9.734415276273655,0.00023186306777726035,0.0010659039890359486,0.0,18.502547585327015,40.36454332520943,-52.5
1765761417.6374497,-0.3245339962311616,0.9970045827805935,-9.372142516948468,-0.5221951019672544,-1.5123335998432843,9.726248093623612,-0.001899944910294637,0.0015296301245904694,-0.001090830782496456,17.70326211002903,40.21860162802295,-52.0
1765761417.6522586,-0.3245339962311616,0.9970045827805935,-9.372142516948468,-0.5128667184652276,-1.5147835482988525,9.737538483340012,-0.0006021778534814279,0.0023636710458491577,0.0,17.70326211002903,40.21860162802295,-52.0
1765761417.6673388,-0.3245339962311616,0.9970045827805935,-9.372142516948468,-0.5066587834495002,-1.5164139616283157,9.74170699986704,-0.0003703147857041675,0.0034295750348851068,-0.002181661564992912,17.70326211002903,40.21860162802295,-52.0
1765761417.6850665,-0.3245339962311616,0.9970045827805935,-9.372142516948468,-0.5066587834495002,-1.5164139616283157,9.74170699986704,-0.0003703147857041675,0.0034295750348851068,-0.002181661564992912,17.70326211002903,40.21860162802295,-52.0
1765761417.7024772,-0.3245339962311616,0.9970045827805935,-9.372142516948468,-0.5025274720437116,-1.517498983486163,9.744481101050397,-0.0008340409212586882,0.001297767056813209,-0.001090830782496456,15.993251711767307,40.59057533386355,-52.75
1765761417.7173946,-0.3245339962311616,0.9970045827805935,-9.372142516948468,-0.503046802340282,-1.5175100284988023,9.74632723439918,0.00023186306777726035,0.0010659039890359486,0.0,15.993251711767307,40.59057533386355,-52.75
1765761417.7324066,-0.3245339962311616,0.9970045827805935,-9.372142516948468,-0.5197357702881019,-1.5139622542649833,9.744210703812815,0.0004637261355545207,0.0021318079780718972,-0.001090830782496456,15.993251711767307,40.59057533386355,-52.75
1765761417.7474573,-0.3245339962311616,0.9970045827805935,-9.372142516948468,-0.5197357702881019,-1.5139622542649833,9.744210703812815,0.0004637261355545207,0.0021318079780718972,-0.001090830782496456,15.993251711767307,40.59057533386355,-52.75
1765761418.0350904,-0.3245339962311616,0.9970045827805935,-9.372142516948468,-0.5063174042489772,-1.520232326986304,9.703016760067722,0.0008340409212586882,-0.001297767056813209,0.002181661564992912,17.336831310401518,40.29831027927451,-52.0
1765761418.0520134,-0.3245339962311616,0.9970045827805935,-9.372142516948468,-0.518643647435971,-1.516484938411619,9.70535273183297,0.0006955892033317811,0.0031977119671078463,0.0,17.336831310401518,40.29831027927451,-52.0
1765761418.066805,-0.3245339962311616,0.9970045827805935,-9.372142516948468,-0.526846624583757,-1.5139910931762393,9.713597518362867,0.0004637261355545207,0.0021318079780718972,0.0,17.336831310401518,40.29831027927451,-52.0
1765761418.0832615,-0.3245339962311616,0.9970045827805935,-9.372142516948468,-0.526846624583757,-1.5139910931762393,9.713597518362867,0.0004637261355545207,0.0021318079780718972,0.0,17.336831310401518,40.29831027927451,-52.0
1765761418.1002579,-0.3245339962311616,0.9970045827805935,-9.372142516948468,-0.525768270467649,-1.5137535168567104,9.719084331698214,0.0010659039890359486,-0.00023186306777726035,-0.001090830782496456,17.482963837696037,40.970100078591614,-52.375
1765761418.1158118,-0.3245339962311616,0.9970045827805935,-9.372142516948468,-0.5152446221873326,-1.5157284872097754,9.722735744681167,0.0015296301245904694,0.0018999449102946372,0.0,17.482963837696037,40.970100078591614,-52.375
1765761418.130471,-0.3245339962311616,0.9970045827805935,-9.372142516948468,-0.5152446221873326,-1.5157284872097754,9.722735744681167,0.0015296301245904694,0.0018999449102946372,0.0,17.482963837696037,40.970100078591614,-52.375
1765761418.1470063,-0.3245339962311616,0.9970045827805935,-9.372142516948468,-0.5075302269003662,-1.513774136030525,9.728510830939685,0.0004637261355545207,0.0021318079780718972,0.0,17.482963837696037,40.970100078591614,-52.375
1765761418.1625726,-0.3245339962311616,0.9970045827805935,-9.372142516948468,-0.512202398674383,-1.5103404624124575,9.735699198040107,0.001899944910294637,-0.0015296301245904694,0.0,16.157830260267424,40.17100543340167,-52.5
1765761418.1777866,-0.3245339962311616,0.9970045827805935,-9.372142516948468,-0.5153116767984127,-1.508055390976281,9.740482976046117,0.0,0.0,0.001090830782496456,16.157830260267424,40.17100543340167,-52.5
1765761418.1945183,-0.3245339962311616,0.9970045827805935,-9.372142516948468,-0.517380866657042,-1.506534701461426,9.736976303456176,-0.0008340409212586882,0.001297767056813209,0.001090830782496456,16.157830260267424,40.17100543340167,-52.5
1765761418.2107697,-0.3245339962311616,0.9970045827805935,-9.372142516948468,-0.5187578893935946,-1.505522699576505,9.72795242860503,-0.0021318079780718972,0.0004637261355545207,0.001090830782496456,16.157830260267424,40.17100543340167,-52.5
1765761418.2258143,-0.3245339962311616,0.9970045827805935,-9.372142516948468,-0.5187578893935946,-1.505522699576505,9.72795242860503,-0.0021318079780718972,0.0004637261355545207,0.001090830782496456,16.157830260267424,40.17100543340167,-52.5
1765761418.2410593,-0.3245339962311616,0.9970045827805935,-9.372142516948468,-0.5196742826424184,-1.5048492236268918,9.728637364109519,0.0,0.0,-0.001090830782496456,16.46318925995702,40.1045815573587,-53.1875
1765761418.2557933,-0.3245339962311616,0.9970045827805935,-9.372142516948468,-0.5151688381645665,-1.512360426506884,9.722402957621886,0.0006955892033317811,0.0031977119671078463,0.0,16.46318925995702,40.1045815573587,-53.1875
1765761418.5401094,-0.3245339962311616,0.9970045827805935,-9.372142516948468,-0.5153772019761659,-1.509744450442132,9.721368371627191,0.00023186306777726035,0.0010659039890359486,-0.001090830782496456,16.89069185952245,40.01158813089855,-52.375
1765761418.556461,-0.3245339962311616,0.9970045827805935,-9.372142516948468,-0.5115981540694418,-1.5123494733818097,9.724255747739504,-0.0008340409212586882,0.001297767056813209,0.0,16.89069185952245,40.01158813089855,-52.375
1765761418.571954,-0.3245339962311616,0.9970045827805935,-9.372142516948468,-0.5090832399022479,-1.514083087048152,9.726177264288141,-0.0010659039890359486,0.00023186306777726035,0.002181661564992912,16.89069185952245,40.01158813089855,-53.1875
1765761418.5900676,-0.3245339962311616,0.9970045827805935,-9.372142516948468,-0.5090832399022479,-1.514083087048152,9.726177264288141,-0.0010659039890359486,0.00023186306777726035,0.002181661564992912,16.89069185952245,40.01158813089855,-53.1875
1765761418.606901,-0.3245339962311616,0.9970045827805935,-9.372142516948468,-0.5074095926174125,-1.5152367875773693,9.724110900379195,0.00023186306777726035,0.0010659039890359486,0.001090830782496456,16.89069185952245,40.01158813089855,-53.1875
1765761418.6222687,-0.3245339962311616,0.9970045827805935,-9.372142516948468,-0.5095644709325701,-1.5152935374786143,9.722735758280589,-0.0008340409212586882,0.001297767056813209,0.001090830782496456,16.89069185952245,40.01158813089855,-53.1875
1765761418.6369615,-0.3245339962311616,0.9970045827805935,-9.372142516948468,-0.5095644709325701,-1.5152935374786143,9.722735758280589,-0.0008340409212586882,0.001297767056813209,0.001090830782496456,16.89069185952245,40.01158813089855,-53.1875
1765761418.6521714,-0.3245339962311616,0.9970045827805935,-9.372142516948468,-0.5175358621544401,-1.513909254077415,9.71847550486799,0.0008340409212586882,-0.001297767056813209,0.0,16.970400510774006,40.37801893052607,-52.0
1765761418.667016,-0.3245339962311616,0.9970045827805935,-9.372142516948468,-0.5228407339663202,-1.5129880289373756,9.715640353812056,0.0010659039890359486,-0.00023186306777726035,0.0,16.970400510774006,40.37801893052607,-52.0
1765761418.6817117,-0.3245339962311616,0.9970045827805935,-9.372142516948468,-0.5191226982098547,-1.510528341836628,9.713753592455044,-0.0025955341136264178,-0.0016680818425173767,0.001090830782496456,16.970400510774006,40.37801893052607,-52.0
1765761418.699648,-0.3245339962311616,0.9970045827805935,-9.372142516948468,-0.5191226982098547,-1.510528341836628,9.713753592455044,-0.0025955341136264178,-0.0016680818425173767,0.001090830782496456,16.970400510774006,40.37801893052607,-52.0
1765761418.7147248,-0.3245339962311616,0.9970045827805935,-9.372142516948468,-0.5140907399730272,-1.512871144348206,9.715843085555775,0.0014362187747401162,-0.0036614381026623673,0.002181661564992912,15.993251711767307,40.59057533386355,-52.5
1765761418.7303414,-0.3245339962311616,0.9970045827805935,-9.372142516948468,-0.5107420279770751,-1.5144302532488423,9.727268954995104,0.001899944910294637,-0.0015296301245904694,-0.002181661564992912,15.993251711767307,40.59057533386355,-52.5
1765761418.7455828,-0.3245339962311616,0.9970045827805935,-9.372142516948468,-0.5117821694386835,-1.5147567978925585,9.734872743471652,-0.00023186306777726035,-0.0010659039890359486,-0.001090830782496456,15.993251711767307,40.59057533386355,-52.5
1765761418.7628257,-0.3245339962311616,0.9970045827805935,-9.372142516948468,-0.5150320189363228,-1.5109944129045882,9.733242756348274,-0.0004637261355545207,-0.0021318079780718972,0.001090830782496456,16.89069185952245,40.01158813089855,-52.75
1765761419.0677493,-0.3245339962311616,0.9970045827805935,-9.372142516948468,-0.515522315035412,-1.5079144305938093,9.727930086034895,-0.0012977670568132089,-0.0008340409212586883,0.001090830782496456,16.237538911518982,40.537436233029176,-51.5625
1765761419.0835829,-0.3245339962311616,0.9970045827805935,-9.372142516948468,-0.515522315035412,-1.5079144305938093,9.727930086034895,-0.0012977670568132089,-0.0008340409212586883,0.001090830782496456,16.237538911518982,40.537436233029176,-51.5625
1765761419.1026287,-0.3245339962311616,0.9970045827805935,-9.372142516948468,-0.5175210440507818,-1.5064408939015217,9.725277383671358,0.0025955341136264178,0.0016680818425173767,-0.001090830782496456,16.237538911518982,40.537436233029176,-51.5625
1765761419.1183004,-0.3245339962311616,0.9970045827805935,-9.372142516948468,-0.5188511758832443,-1.5054602716932879,9.72351203988105,0.0016680818425173765,-0.002595534113626418,-0.001090830782496456,16.237538911518982,40.537436233029176,-51.5625
1765761419.1335933,-0.3245339962311616,0.9970045827805935,-9.372142516948468,-0.519736363759202,-1.504807678567976,9.722337223308784,-0.0012977670568132089,-0.0008340409212586883,0.0,17.623553458777472,39.85217082839544,-52.0
1765761419.1515677,-0.3245339962311616,0.9970045827805935,-9.372142516948468,-0.5177677994283748,-1.5083530819336441,9.7215553960035,-0.0010659039890359486,0.00023186306777726035,-0.002181661564992912,17.623553458777472,39.85217082839544,-52.0
1765761419.1705973,-0.3245339962311616,0.9970045827805935,-9.372142516948468,-0.5139000948824334,-1.5146922050693659,9.721035098665418,-0.00023186306777726035,-0.0010659039890359486,0.001090830782496456,17.623553458777472,39.85217082839544,-52.0
1765761419.188849,-0.3245339962311616,0.9970045827805935,-9.372142516948468,-0.5139000948824334,-1.5146922050693659,9.721035098665418,-0.00023186306777726035,-0.0010659039890359486,0.001090830782496456,17.623553458777472,39.85217082839544,-52.0
1765761419.203792,-0.3245339962311616,0.9970045827805935,-9.372142516948468,-0.5113261807122002,-1.5189108207035436,9.707308399769747,-0.0012977670568132089,-0.0008340409212586883,0.001090830782496456,17.40325518644448,40.6036692789641,-53.1875
1765761419.2189076,-0.3245339962311616,0.9970045827805935,-9.372142516948468,-0.5121709165584954,-1.517738565482444,9.721589216943189,0.0,0.0,0.0,17.40325518644448,40.6036692789641,-53.1875
1765761419.233553,-0.3245339962311616,0.9970045827805935,-9.372142516948468,-0.5160017507152378,-1.5162474178144811,9.721057606122976,-0.0021318079780718972,0.0004637261355545207,-0.001090830782496456,17.40325518644448,40.6036692789641,-53.1875
1765761419.2520356,-0.3245339962311616,0.9970045827805935,-9.372142516948468,-0.5160017507152378,-1.5162474178144811,9.721057606122976,-0.0021318079780718972,0.0004637261355545207,-0.001090830782496456,17.40325518644448,40.6036692789641,-53.1875
1765761419.2682626,-0.3957733448043498,1.884469518753109,-9.280445320902961,-0.514571431252708,-1.5126974287245822,9.720703825060607,-0.0012977670568132089,-0.0008340409212586883,-0.001090830782496456,16.237538911518982,40.537436233029176,-52.0
1765761419.5696151,-0.3245339962311616,0.9970045827805935,-9.372142516948468,-0.5130566714420552,-1.5158521028689307,9.735525811491835,0.0,0.0,0.0,17.25712265914996,39.931879479646994,-53.1875
1765761419.585237,-0.3245339962311616,0.9970045827805935,-9.372142516948468,-0.5126115138950961,-1.5124343510442757,9.743712700942416,0.0010659039890359486,-0.00023186306777726035,-0.001090830782496456,17.25712265914996,39.931879479646994,-53.1875
1765761419.6013165,-0.3245339962311616,0.9970045827805935,-9.372142516948468,-0.5126115138950961,-1.5124343510442757,9.743712700942416,0.0010659039890359486,-0.00023186306777726035,-0.001090830782496456,17.25712265914996,39.931879479646994,-53.1875
1765761419.6160476,-0.3245339962311616,0.9970045827805935,-9.372142516948468,-0.5090465946329801,-1.5108709002970273,9.735780537588951,-0.0010659039890359486,0.00023186306777726035,0.001090830782496456,17.25712265914996,39.931879479646994,-53.1875
1765761419.6308773,-0.3245339962311616,0.9970045827805935,-9.372142516948468,-0.5066741806867993,-1.5098304412896226,9.727156659777974,-0.0015296301245904694,-0.0018999449102946372,0.0,16.542897911208573,40.471012356986215,-52.0625
1765761419.6460216,-0.3245339962311616,0.9970045827805935,-9.372142516948468,-0.5050953657072161,-1.5091380274428834,9.721417565429794,0.0008340409212586882,-0.001297767056813209,0.003272492347489368,16.542897911208573,40.471012356986215,-52.0625
1765761419.6676013,-0.3245339962311616,0.9970045827805935,-9.372142516948468,-0.5105820257495233,-1.5072551839361081,9.717598262250966,0.0006955892033317811,0.0031977119671078463,-0.001090830782496456,16.542897911208573,40.471012356986215,-52.0625
1765761419.6824055,-0.3245339962311616,0.9970045827805935,-9.372142516948468,-0.5105820257495233,-1.5072551839361081,9.717598262250966,0.0006955892033317811,0.0031977119671078463,-0.001090830782496456,16.542897911208573,40.471012356986215,-52.0625
1765761419.6985207,-0.3245339962311616,0.9970045827805935,-9.372142516948468,-0.5142333367176701,-1.5060021726150892,9.718401670357187,0.00023186306777726035,0.0010659039890359486,-0.002181661564992912,17.03682438681697,40.683377930215656,-53.1875
1765761419.7134626,-0.3245339962311616,0.9970045827805935,-9.372142516948468,-0.5166632433791558,-1.5051683075780047,9.732316776306497,-0.029308157889785157,-0.13986528563148654,0.0,17.03682438681697,40.683377930215656,-53.1875
1765761419.7281966,-0.3245339962311616,0.9970045827805935,-9.372142516948468,-0.5182803191185386,-1.5046133797107077,9.741577123873846,-0.0010659039890359486,0.00023186306777726035,0.0,17.03682438681697,40.683377930215656,-53.1875
1765761419.7446198,-0.3245339962311616,0.9970045827805935,-9.372142516948468,-0.5182803191185386,-1.5046133797107077,9.741577123873846,-0.0010659039890359486,0.00023186306777726035,0.0,17.03682438681697,40.683377930215656,-53.1875
1765761419.760411,-0.3245339962311616,0.9970045827805935,-9.372142516948468,-0.5135301460977474,-1.5089348031278624,9.734359334905777,0.0023636710458491577,0.000602177853481428,0.001090830782496456,16.542897911208573,40.471012356986215,-52.5
1765761419.7751372,-0.3245339962311616,0.9970045827805935,-9.372142516948468,-0.5103689590153203,-1.5118106621385163,9.729555976975513,0.0006021778534814279,-0.0023636710458491577,0.001090830782496456,16.542897911208573,40.471012356986215,-52.5
1765761420.059208,-0.3245339962311616,0.9970045827805935,-9.372142516948468,-0.5173854272422514,-1.5061594484138365,9.714305462027053,0.0,0.0,0.002181661564992912,16.542897911208573,40.471012356986215,-52.5
1765761420.0765512,-0.3245339962311616,0.9970045827805935,-9.372142516948468,-0.5194719493253762,-1.5085416447525355,9.709520125176523,-0.0010659039890359486,0.00023186306777726035,-0.001090830782496456,16.542897911208573,40.471012356986215,-52.5
1765761420.0918403,-0.3245339962311616,0.9970045827805935,-9.372142516948468,-0.5194719493253762,-1.5085416447525355,9.709520125176523,-0.0010659039890359486,0.00023186306777726035,-0.001090830782496456,16.542897911208573,40.471012356986215,-52.5
1765761420.1083071,-0.3245339962311616,0.9970045827805935,-9.372142516948468,-0.520860506463717,-1.5101269698050632,9.70633553695821,0.0,0.0,0.001090830782496456,16.157830260267424,40.17100543340167,-52.75
1765761420.1256406,-0.3245339962311616,0.9970045827805935,-9.372142516948468,-0.5217845757280831,-1.5111819859182791,9.714251564195063,0.0,0.0,0.001090830782496456,16.157830260267424,40.17100543340167,-52.75
1765761420.14167,-0.3245339962311616,0.9970045827805935,-9.372142516948468,-0.5223995335009888,-1.5118840873563222,9.726209815308009,-0.00023186306777726035,-0.0010659039890359486,0.0,16.157830260267424,40.17100543340167,-52.75
1765761420.1565278,-0.3245339962311616,0.9970045827805935,-9.372142516948468,-0.5223995335009888,-1.5118840873563222,9.726209815308009,-0.00023186306777726035,-0.0010659039890359486,0.0,16.157830260267424,40.17100543340167,-52.75
1765761420.1732385,-0.3245339962311616,0.9970045827805935,-9.372142516948468,-0.522808781029329,-1.5123513280203527,9.727477674426616,-0.00023186306777726035,-0.0010659039890359486,0.0,16.542897911208573,40.471012356986215,-52.5
1765761420.1890383,-0.3245339962311616,0.9970045827805935,-9.372142516948468,-0.5230811306878451,-1.5126622714628448,9.728321420507136,-0.002965848899330586,0.0017614931923677299,-0.001090830782496456,16.542897911208573,40.471012356986215,-52.5
1765761420.2038722,-0.3245339962311616,0.9970045827805935,-9.372142516948468,-0.5232623763432425,-1.5128692008503577,9.72888292409846,-0.0008340409212586882,0.001297767056813209,0.002181661564992912,16.542897911208573,40.471012356986215,-52.5
1765761420.2205174,-0.3245339962311616,0.9970045827805935,-9.372142516948468,-0.516134624614292,-1.511160287985384,9.715876151636802,-0.0017614931923677296,-0.0029658488993305862,0.0,17.70326211002903,40.21860162802295,-52.5
1765761420.2351441,-0.3245339962311616,0.9970045827805935,-9.372142516948468,-0.516134624614292,-1.511160287985384,9.715876151636802,-0.0017614931923677296,-0.0029658488993305862,0.0,17.70326211002903,40.21860162802295,-52.5
1765761420.2534873,-0.3245339962311616,0.9970045827805935,-9.372142516948468,-0.5048538416861788,-1.5114450753900917,9.727290960102655,-0.0006021778534814279,0.0023636710458491577,0.0,17.70326211002903,40.21860162802295,-52.5
1765761420.2691789,-0.3245339962311616,0.9970045827805935,-9.372142516948468,-0.5038839504368222,-1.5102125484001008,9.731542275917596,0.0008340409212586882,-0.001297767056813209,0.002181661564992912,17.70326211002903,40.21860162802295,-52.5
1765761420.2838287,-0.3245339962311616,0.9970045827805935,-9.372142516948468,-0.5097758424194714,-1.5079702656299507,9.734371479102128,-0.00023186306777726035,-0.0010659039890359486,0.001090830782496456,16.09140638422446,39.86564643371207,-52.0625
1765761420.5684295,-0.3245339962311616,0.9970045827805935,-9.372142516948468,-0.5216341167998189,-1.5083933840455974,9.718199892930771,0.00023186306777726035,0.0010659039890359486,0.0,16.46318925995702,40.1045815573587,-52.75
1765761420.5842953,-0.3245339962311616,0.9970045827805935,-9.372142516948468,-0.5215883798516954,-1.506759632073426,9.718802048853941,-0.0010659039890359486,0.00023186306777726035,-0.002181661564992912,16.46318925995702,40.1045815573587,-52.75
1765761420.600635,-0.3245339962311616,0.9970045827805935,-9.372142516948468,-0.5222689673369043,-1.5089410602735018,9.722547888601609,0.0023636710458491577,0.000602177853481428,0.001090830782496456,15.993251711767307,40.59057533386355,-52.5
1765761420.6175008,-0.3245339962311616,0.9970045827805935,-9.372142516948468,-0.5222689673369043,-1.5089410602735018,9.722547888601609,0.0023636710458491577,0.000602177853481428,0.001090830782496456,15.993251711767307,40.59057533386355,-52.5
1765761420.6327844,-0.3245339962311616,0.9970045827805935,-9.372142516948468,-0.5259905625930008,-1.5096817514592327,9.72504070310991,0.0,0.0,-0.001090830782496456,15.993251711767307,40.59057533386355,-52.5
1765761420.6478562,-0.3245339962311616,0.9970045827805935,-9.372142516948468,-0.5244875458623698,-1.5076170261951933,9.720009419903983,-0.0023636710458491577,-0.000602177853481428,0.0,15.993251711767307,40.59057533386355,-52.5
1765761420.6645842,-0.3245339962311616,0.9970045827805935,-9.372142516948468,-0.5169499612432311,-1.5076650244230074,9.713316045426234,0.0008340409212586882,-0.001297767056813209,0.001090830782496456,16.396765383914055,39.79922255766911,-53.5625
1765761420.6797128,-0.3245339962311616,0.9970045827805935,-9.372142516948468,-0.5169499612432311,-1.5076650244230074,9.713316045426234,0.0008340409212586882,-0.001297767056813209,0.001090830782496456,16.396765383914055,39.79922255766911,-53.5625
1765761420.6968837,-0.3245339962311616,0.9970045827805935,-9.372142516948468,-0.509376135905451,-1.5116766635080627,9.712206791188505,0.0012977670568132089,0.0008340409212586883,0.001090830782496456,16.396765383914055,39.79922255766911,-53.5625
1765761420.7120497,-0.3245339962311616,0.9970045827805935,-9.372142516948468,-0.5083155365489513,-1.5169040114803027,9.711468594884478,0.0003703147857041675,-0.0034295750348851068,-0.002181661564992912,16.396765383914055,39.79922255766911,-53.5625
1765761420.7278748,-0.3245339962311616,0.9970045827805935,-9.372142516948468,-0.5134360383863027,-1.515692031448635,9.71097733349034,0.0015296301245904694,0.0018999449102946372,0.001090830782496456,17.336831310401518,40.29831027927451,-53.1875
1765761420.7425961,-0.3245339962311616,0.9970045827805935,-9.372142516948468,-0.5168436751593066,-1.5148854722762646,9.710650404520292,0.0008340409212586882,-0.001297767056813209,0.0,17.336831310401518,40.29831027927451,-53.1875
1765761420.7604465,-0.3245339962311616,0.9970045827805935,-9.372142516948468,-0.5168436751593066,-1.5148854722762646,9.710650404520292,0.0008340409212586882,-0.001297767056813209,0.0,17.336831310401518,40.29831027927451,-53.1875
1765761420.77709,-0.3245339962311616,0.9970045827805935,-9.372142516948468,-0.5191114193659438,-1.514348716156908,9.71377794865008,0.00023186306777726035,0.0010659039890359486,-0.001090830782496456,17.336831310401518,40.29831027927451,-53.1875
1765761420.7921262,-0.3245339962311616,0.9970045827805935,-9.372142516948468,-0.516640881002478,-1.5114338639813545,9.722549517746135,-0.00023186306777726035,-0.0010659039890359486,-0.001090830782496456,16.89069185952245,40.01158813089855,-52.75
1765761421.1217473,-0.3245339962311616,0.9970045827805935,-9.372142516948468,-0.514246151955354,-1.5127013987277054,9.725896621849701,0.0012977670568132089,0.0008340409212586883,0.0,17.25712265914996,39.931879479646994,-53.1875
1765761421.1383963,-0.3245339962311616,0.9970045827805935,-9.372142516948468,-0.510845452915248,-1.514317289434582,9.730614359386033,-0.00023186306777726035,-0.0010659039890359486,0.002181661564992912,17.25712265914996,39.931879479646994,-53.1875
1765761421.1549733,-0.3245339962311616,0.9970045827805935,-9.372142516948468,-0.5092933506056248,-1.5186613185366766,9.7370990727232,0.0010659039890359486,-0.00023186306777726035,0.001090830782496456,17.03682438681697,40.683377930215656,-52.5
1765761421.1707473,-0.3245339962311616,0.9970045827805935,-9.372142516948468,-0.5147977876313901,-1.5201301715515965,9.734724353595452,-0.00023186306777726035,-0.0010659039890359486,0.001090830782496456,17.03682438681697,40.683377930215656,-52.5
1765761421.187448,-0.3245339962311616,0.9970045827805935,-9.372142516948468,-0.5147977876313901,-1.5201301715515965,9.734724353595452,-0.00023186306777726035,-0.0010659039890359486,0.001090830782496456,17.03682438681697,40.683377930215656,-52.5
1765761421.2024827,-0.3245339962311616,0.9970045827805935,-9.372142516948468,-0.5177499040701765,-1.517839004937512,9.739834227957925,0.0,0.0,0.001090830782496456,17.03682438681697,40.683377930215656,-52.5
1765761421.217235,-0.3245339962311616,0.9970045827805935,-9.372142516948468,-0.5197145045828875,-1.5163142591498466,9.746579903972433,0.0,0.0,0.001090830782496456,17.70326211002903,40.21860162802295,-52.75
1765761421.23186,-0.3245339962311616,0.9970045827805935,-9.372142516948468,-0.5177532523907206,-1.5160105827739518,9.75106907600595,-0.0015296301245904694,-0.0018999449102946372,0.001090830782496456,17.70326211002903,40.21860162802295,-52.75
1765761421.24836,-0.3245339962311616,0.9970045827805935,-9.372142516948468,-0.5177532523907206,-1.5160105827739518,9.75106907600595,-0.0015296301245904694,-0.0018999449102946372,0.001090830782496456,17.70326211002903,40.21860162802295,-52.75
1765761421.265501,-0.3245339962311616,0.9970045827805935,-9.372142516948468,-0.5131793890781057,-1.516519514451351,9.747366346432278,0.0023636710458491577,0.000602177853481428,0.002181661564992912,17.70326211002903,40.21860162802295,-52.75
1765761421.2826524,-0.3245339962311616,0.9970045827805935,-9.372142516948468,-0.5101355341369613,-1.516858202797521,9.741557109555881,-0.0010659039890359486,0.00023186306777726035,0.0,16.157830260267424,40.17100543340167,-52.75
1765761421.3000083,-0.3245339962311616,0.9970045827805935,-9.372142516948468,-0.5113785545630678,-1.5163725711952303,9.737691127308066,-0.0010659039890359486,0.00023186306777726035,-0.001090830782496456,16.157830260267424,40.17100543340167,-52.75
1765761421.5983093,-0.3245339962311616,0.9970045827805935,-9.372142516948468,-0.5177055342022375,-1.505247934406679,9.721949766283943,0.0004637261355545207,0.0021318079780718972,0.001090830782496456,16.237538911518982,40.537436233029176,-54.375
1765761421.6144154,-0.3245339962311616,0.9970045827805935,-9.372142516948468,-0.5164163050440675,-1.508646067276321,9.724642659388968,-0.0021318079780718972,0.0004637261355545207,0.001090830782496456,16.237538911518982,40.537436233029176,-54.375
1765761421.6299837,-0.3245339962311616,0.9970045827805935,-9.372142516948468,-0.5164163050440675,-1.508646067276321,9.724642659388968,-0.0021318079780718972,0.0004637261355545207,0.001090830782496456,16.237538911518982,40.537436233029176,-54.375
1765761421.645395,-0.3245339962311616,0.9970045827805935,-9.372142516948468,-0.5122896655535885,-1.511618511654706,9.726434749668774,0.0003703147857041675,-0.0034295750348851068,0.0,17.336831310401518,40.29831027927451,-53.5625
1765761421.662879,-0.3245339962311616,0.9970045827805935,-9.372142516948468,-0.5095434330702582,-1.5135966401841423,9.737662700852983,0.0010659039890359486,-0.00023186306777726035,0.001090830782496456,17.336831310401518,40.29831027927451,-53.5625
1765761421.6783423,-0.3245339962311616,0.9970045827805935,-9.372142516948468,-0.5084268709432987,-1.518181734510689,9.745134776941642,-0.0006021778534814279,0.0023636710458491577,-0.001090830782496456,17.336831310401518,40.29831027927451,-53.5625
1765761421.6930387,-0.3245339962311616,0.9970045827805935,-9.372142516948468,-0.5084268709432987,-1.518181734510689,9.745134776941642,-0.0006021778534814279,0.0023636710458491577,-0.001090830782496456,17.336831310401518,40.29831027927451,-53.5625
1765761421.7084029,-0.3245339962311616,0.9970045827805935,-9.372142516948468,-0.5069727864073534,-1.5179643916787955,9.746762248402765,-0.00023186306777726035,-0.0010659039890359486,-0.001090830782496456,16.396765383914055,39.79922255766911,-53.5625
1765761421.7230842,-0.3245339962311616,0.9970045827805935,-9.372142516948468,-0.5060051093918705,-1.517819752452049,9.7311197539435,-0.0003703147857041675,0.0034295750348851068,0.001090830782496456,16.396765383914055,39.79922255766911,-53.5625
1765761421.7378197,-0.3245339962311616,0.9970045827805935,-9.372142516948468,-0.5053611311477271,-1.5177234966623752,9.734090295448247,-0.0008340409212586882,0.001297767056813209,-0.001090830782496456,16.396765383914055,39.79922255766911,-53.5625
1765761421.752696,-0.3245339962311616,0.9970045827805935,-9.372142516948468,-0.5082012427073084,-1.516948414596325,9.722686710807256,0.0015296301245904694,0.0018999449102946372,0.001090830782496456,16.396765383914055,39.79922255766911,-53.5625
1765761421.7701287,-0.3245339962311616,0.9970045827805935,-9.372142516948468,-0.5082012427073084,-1.516948414596325,9.722686710807256,0.0015296301245904694,0.0018999449102946372,0.001090830782496456,16.396765383914055,39.79922255766911,-53.5625
1765761421.785057,-0.3245339962311616,0.9970045827805935,-9.372142516948468,-0.5133599771114352,-1.5157215812263327,9.718442864322384,-0.0012977670568132089,-0.0008340409212586883,-0.001090830782496456,16.317056732662497,39.432791758041596,-52.75
1765761421.8007674,-0.3245339962311616,0.9970045827805935,-9.372142516948468,-0.5175040821438124,-1.5181738092105799,9.715618631893573,0.0025955341136264178,0.0016680818425173767,0.001090830782496456,16.317056732662497,39.432791758041596,-52.75
1765761421.8164678,-0.3245339962311616,0.9970045827805935,-9.372142516948468,-0.5188398879236331,-1.513268395766214,9.713739136760942,-0.0027339858315533257,0.0028273971814036787,0.0,16.317056732662497,39.432791758041596,-52.75
1765761422.1008124,-0.3245339962311616,0.9970045827805935,-9.372142516948468,-0.511992496366279,-1.5071166422830915,9.720066435120284,-0.00023186306777726035,-0.0010659039890359486,-0.001090830782496456,16.09140638422446,39.86564643371207,-53.1875
1765761422.1181326,-0.3245339962311616,0.9970045827805935,-9.372142516948468,-0.5151719891571319,-1.5059099746926183,9.72004421183042,0.0,0.0,0.0,16.09140638422446,39.86564643371207,-53.1875
1765761422.1333852,-0.3245339962311616,0.9970045827805935,-9.372142516948468,-0.5107505623174821,-1.5065290007170586,9.720029422479266,-0.0015296301245904694,-0.0018999449102946372,0.0,16.09140638422446,39.86564643371207,-53.1875
1765761422.151323,-0.3245339962311616,0.9970045827805935,-9.372142516948468,-0.5107505623174821,-1.5065290007170586,9.720029422479266,-0.0015296301245904694,-0.0018999449102946372,0.0,16.09140638422446,39.86564643371207,-53.1875
1765761422.166676,-0.3245339962311616,0.9970045827805935,-9.372142516948468,-0.5078081521462691,-1.5069409556213496,9.72001958033128,-0.00023186306777726035,-0.0010659039890359486,0.0,16.46318925995702,40.1045815573587,-52.0625
1765761422.181939,-0.3245339962311616,0.9970045827805935,-9.372142516948468,-0.5123873548209029,-1.5057930571817777,9.716667918784422,0.0015296301245904694,0.0018999449102946372,0.001090830782496456,16.46318925995702,40.1045815573587,-52.0625
1765761422.199295,-0.3245339962311616,0.9970045827805935,-9.372142516948468,-0.5123873548209029,-1.5057930571817777,9.716667918784422,0.0015296301245904694,0.0018999449102946372,0.001090830782496456,16.46318925995702,40.1045815573587,-52.0625
1765761422.216011,-0.3245339962311616,0.9970045827805935,-9.372142516948468,-0.5154347630478262,-1.5050291435931085,9.7144374254655,0.0010659039890359486,-0.00023186306777726035,0.001090830782496456,16.46318925995702,40.1045815573587,-52.0625
1765761422.2312858,-0.3245339962311616,0.9970045827805935,-9.372142516948468,-0.5247111478690338,-1.5063673896941334,9.712953057078,0.00023186306777726035,0.0010659039890359486,-0.001090830782496456,16.157830260267424,40.17100543340167,-52.75
1765761422.2470434,-0.3245339962311616,0.9970045827805935,-9.372142516948468,-0.5308844783435394,-1.507257977525177,9.7119652264976,-0.00023186306777726035,-0.0010659039890359486,-0.001090830782496456,16.157830260267424,40.17100543340167,-52.75
1765761422.262452,-0.3245339962311616,0.9970045827805935,-9.372142516948468,-0.5308844783435394,-1.507257977525177,9.7119652264976,-0.00023186306777726035,-0.0010659039890359486,-0.001090830782496456,16.157830260267424,40.17100543340167,-52.75
1765761422.279851,-0.3245339962311616,0.9970045827805935,-9.372142516948468,-0.5277443921257322,-1.5060040317174084,9.707962724573816,-0.0012977670568132089,-0.0008340409212586883,-0.001090830782496456,16.157830260267424,40.17100543340167,-52.75
1765761422.2975647,-0.3245339962311616,0.9970045827805935,-9.372142516948468,-0.525654699824843,-1.5051695447898306,9.705299104254413,-0.0006955892033317811,-0.0031977119671078463,0.001090830782496456,17.623553458777472,39.85217082839544,-51.25
1765761422.312475,-0.3245339962311616,0.9970045827805935,-9.372142516948468,-0.5177266891672929,-1.5060362528878972,9.70352649468644,0.00023186306777726035,0.0010659039890359486,0.001090830782496456,17.623553458777472,39.85217082839544,-51.25
1765761422.3296077,-0.3245339962311616,0.9970045827805935,-9.372142516948468,-0.5177266891672929,-1.5060362528878972,9.70352649468644,0.00023186306777726035,0.0010659039890359486,0.001090830782496456,17.623553458777472,39.85217082839544,-51.25
1765761422.6131375,-0.3245339962311616,0.9970045827805935,-9.372142516948468,-0.5180757145906066,-1.5043952222115007,9.729775116134673,0.0006021778534814279,-0.0023636710458491577,0.0,16.139384239061826,41.26236513318065,-52.5
1765761422.6295664,-0.3245339962311616,0.9970045827805935,-9.372142516948468,-0.5133939840699909,-1.508789621749119,9.726505230592423,-0.0015296301245904694,-0.0018999449102946372,0.0,16.237538911518982,40.537436233029176,-52.0625
1765761422.6470003,-0.3245339962311616,0.9970045827805935,-9.372142516948468,-0.5135470165942283,-1.511003020639475,9.72432915829107,0.0021318079780718972,-0.0004637261355545207,0.001090830782496456,16.237538911518982,40.537436233029176,-52.0625
