timestamp,yaw,pitch,roll,ax,ay,az,gx,gy,gz,mx,my,mz
1769121467.241147,180.0,0.0,0.0,0.0,0.0,0.0,0.0,0.0,0.0,0.0,0.0,0.0
1769121467.2542222,0.0,0.0,0.0,0.0,0.0,0.0,0.0,0.0,0.0,17.5,1.6875,-33.6875
1769121467.2656274,0.0,0.0,0.0,-0.07024734585370705,0.7727208043907776,1.6725558536596918,-0.001090830782496456,0.003272492347489368,0.0,17.5,1.6875,-33.6875
1769121467.2771814,0.0,0.0,0.0,-0.07024734585370705,0.7727208043907776,1.6725558536596918,-0.001090830782496456,0.003272492347489368,0.0,17.5,1.6875,-33.6875
1769121467.2917163,0.0,0.0,0.0,-0.11699616980507918,1.286957867855871,3.3451117073193837,0.0,0.0,0.001090830782496456,17.5,1.6875,-33.6875
1769121467.303866,0.0,0.0,0.0,-0.11699616980507918,1.286957867855871,3.3451117073193837,0.0,0.0,0.001090830782496456,17.5,1.6875,-33.6875
1769121467.3193562,0.0,0.0,0.0,-0.14810698992613655,1.6325220008948214,5.017667560979075,-0.001090830782496456,-0.001090830782496456,0.0,17.5,1.6875,-33.6875
1769121467.3366244,0.0,0.0,0.0,-0.14810698992613655,1.6325220008948214,5.017667560979075,-0.001090830782496456,-0.001090830782496456,0.0,17.5,1.6875,-33.6875
1769121467.3501008,0.0,0.0,0.0,-0.16881089318606826,1.862491071227945,6.46019093374128,-0.001090830782496456,0.002181661564992912,0.0,17.5,1.6875,-33.6875
1769121467.362069,0.0,0.0,0.0,-0.16881089318606826,1.862491071227945,6.46019093374128,-0.001090830782496456,0.002181661564992912,0.0,17.5,1.6875,-33.6875
1769121467.3827708,0.15364296608280484,1.2566088047010218,13.94123745159746,-0.17924399782048006,2.012187806904481,7.423519235979935,0.001090830782496456,0.003272492347489368,-0.002181661564992912,17.75,1.6875,-33.0
1769121467.39603,0.15364296608280484,1.2566088047010218,13.94123745159746,-0.17924399782048006,2.012187806904481,7.423519235979935,0.001090830782496456,0.003272492347489368,-0.002181661564992912,17.75,1.6875,-33.0
1769121467.4098258,0.15364296608280484,1.2566088047010218,13.94123745159746,-0.18618711240926594,2.111809312275109,8.077983906866804,-0.001090830782496456,0.002181661564992912,-0.001090830782496456,17.75,1.6875,-33.0
1769121467.4250443,0.15364296608280484,1.2566088047010218,13.94123745159746,-0.18618711240926594,2.111809312275109,8.077983906866804,-0.001090830782496456,0.002181661564992912,-0.001090830782496456,17.75,1.6875,-33.0
1769121467.4456432,0.15364296608280484,1.2566088047010218,13.94123745159746,-0.19749790102306983,2.17810631125413,8.500142387663336,0.0,0.002181661564992912,-0.003272492347489368,17.75,1.6875,-33.0
1769121467.4633114,0.15364296608280484,1.2566088047010218,13.94123745159746,-0.19749790102306983,2.17810631125413,8.500142387663336,0.0,0.002181661564992912,-0.003272492347489368,17.75,1.6875,-33.0
1769121467.4814212,0.15364296608280484,1.2566088047010218,13.94123745159746,-0.2050251044957687,2.222226223488665,8.791119475936163,0.0,0.001090830782496456,0.002181661564992912,17.0625,2.75,-33.6875
1769121467.4980574,0.15364296608280484,1.2566088047010218,13.94123745159746,-0.21003437432247754,2.2515875322290353,8.981416366047355,-0.002181661564992912,0.001090830782496456,0.001090830782496456,17.0625,2.75,-33.6875
1769121467.512335,0.15364296608280484,1.2566088047010218,13.94123745159746,-0.21003437432247754,2.2515875322290353,8.981416366047355,-0.002181661564992912,0.001090830782496456,0.001090830782496456,17.0625,2.75,-33.6875
1769121467.528541,0.15364296608280484,1.2566088047010218,13.94123745159746,-0.21002287572762246,2.2711271552084424,9.108056820660806,-0.001090830782496456,0.003272492347489368,0.002181661564992912,17.0625,2.75,-33.6875
1769121467.5410235,0.15364296608280484,1.2566088047010218,13.94123745159746,-0.21002287572762246,2.2711271552084424,9.108056820660806,-0.001090830782496456,0.003272492347489368,0.002181661564992912,17.0625,2.75,-33.6875
1769121467.5523338,0.15364296608280484,1.2566088047010218,13.94123745159746,-0.21001522354119412,2.2841305560293472,9.192334628539486,-0.001090830782496456,0.002181661564992912,-0.001090830782496456,18.0625,2.75,-32.0625
1769121467.5647829,0.15364296608280484,1.2566088047010218,13.94123745159746,-0.21001522354119412,2.2841305560293472,9.192334628539486,-0.001090830782496456,0.002181661564992912,-0.001090830782496456,18.0625,2.75,-32.0625
1769121467.5778792,0.15364296608280484,1.2566088047010218,13.94123745159746,-0.21001013109660657,2.296129285725474,9.248420568237949,-0.001090830782496456,0.002181661564992912,0.001090830782496456,18.0625,2.75,-32.0625
1769121467.5909338,0.15364296608280484,1.2566088047010218,13.94123745159746,-0.2100067421316199,2.3041143063036533,9.285745134586277,0.0,0.001090830782496456,0.0,18.0625,2.75,-32.0625
1769121467.6020095,0.15364296608280484,1.2566088047010218,13.94123745159746,-0.2100067421316199,2.3041143063036533,9.285745134586277,0.0,0.001090830782496456,0.0,18.0625,2.75,-32.0625
1769121467.6131277,0.15364296608280484,1.2566088047010218,13.94123745159746,-0.2100044868132785,2.3094282482999073,9.310584216548364,-0.001090830782496456,0.002181661564992912,0.0,17.0625,2.75,-33.25
1769121467.6255717,0.15364296608280484,1.2566088047010218,13.94123745159746,-0.2100044868132785,2.3094282482999073,9.310584216548364,-0.001090830782496456,0.002181661564992912,0.0,17.0625,2.75,-33.25
1769121467.6381116,0.15364296608280484,1.2566088047010218,13.94123745159746,-0.20665787421679646,2.309619505630473,9.330459459830726,0.0,0.002181661564992912,0.0,17.0625,2.75,-33.25
1769121467.6521175,0.15364296608280484,1.2566088047010218,13.94123745159746,-0.20777585262526926,2.3097467852474804,9.343686212214124,0.0,0.002181661564992912,0.0,17.0625,2.75,-33.25
1769121467.6641896,0.15364296608280484,1.2566088047010218,13.94123745159746,-0.20777585262526926,2.3097467852474804,9.343686212214124,0.0,0.002181661564992912,0.0,17.0625,2.75,-33.25
1769121467.676841,0.15364296608280484,1.2566088047010218,13.94123745159746,-0.2085198547674708,2.306486376703473,9.349143356465449,-0.002181661564992912,0.002181661564992912,0.0,17.5,3.25,-31.0
1769121467.688172,0.15364296608280484,1.2566088047010218,13.94123745159746,-0.2085198547674708,2.306486376703473,9.349143356465449,-0.002181661564992912,0.002181661564992912,0.0,17.5,3.25,-31.0
1769121467.7004213,0.15364296608280484,1.2566088047010218,13.94123745159746,-0.20901497988205744,2.304316611238586,9.349429913297092,0.0,0.0,0.0,17.5,3.25,-31.0
1769121467.712252,0.15364296608280484,1.2566088047010218,13.94123745159746,-0.20934448011490492,2.302872656559572,9.3496206136675,0.0,0.0,0.0,17.5,3.25,-31.0
1769121467.7241523,0.15364296608280484,1.2566088047010218,13.94123745159746,-0.20934448011490492,2.302872656559572,9.3496206136675,0.0,0.0,0.0,17.5,3.25,-31.0
1769121467.738935,0.15364296608280484,1.2566088047010218,13.94123745159746,-0.20956375883910613,2.3019117208507187,9.349747522633745,0.0,0.001090830782496456,0.0,17.5,1.75,-32.5
1769121467.7503824,0.15364296608280484,1.2566088047010218,13.94123745159746,-0.2097096863805582,2.3046173405781514,9.349831979133114,0.001090830782496456,0.002181661564992912,0.0,17.5,1.75,-32.5
1769121467.7614927,0.15364296608280484,1.2566088047010218,13.94123745159746,-0.2097096863805582,2.3046173405781514,9.349831979133114,0.001090830782496456,0.002181661564992912,0.0,17.5,1.75,-32.5
1769121467.7732675,0.15364296608280484,1.2566088047010218,13.94123745159746,-0.2098067995292771,2.306417900283005,9.349888183990004,0.0,0.002181661564992912,-0.001090830782496456,17.5,1.75,-32.5
1769121467.784415,0.15364296608280484,1.2566088047010218,13.94123745159746,-0.20987142724492458,2.310961264360335,9.356615811109053,-0.001090830782496456,0.002181661564992912,-0.001090830782496456,17.5,1.75,-32.5
1769121467.7951684,0.15364296608280484,1.2566088047010218,13.94123745159746,-0.20987142724492458,2.310961264360335,9.356615811109053,-0.001090830782496456,0.002181661564992912,-0.001090830782496456,17.5,1.75,-32.5
1769121467.806158,59.08289053588676,1.253485378284356,13.940806012062248,-0.20991443626774908,2.310639710693777,9.354402748389623,0.0,0.001090830782496456,0.0,17.75,2.5625,-32.0625
1769121467.8169394,59.08289053588676,1.253485378284356,13.940806012062248,-0.20991443626774908,2.310639710693777,9.354402748389623,0.0,0.001090830782496456,0.0,17.75,2.5625,-32.0625
1769121467.8284934,59.08289053588676,1.253485378284356,13.940806012062248,-0.20994305829199653,2.3137708320279913,9.352929979871371,-0.001090830782496456,0.003272492347489368,0.0,17.75,2.5625,-32.0625
1769121467.8394578,59.08289053588676,1.253485378284356,13.940806012062248,-0.20994305829199653,2.3137708320279913,9.352929979871371,-0.001090830782496456,0.003272492347489368,0.0,17.75,2.5625,-32.0625
1769121467.8526611,59.08289053588676,1.253485378284356,13.940806012062248,-0.20996210592940423,2.3125094465916742,9.351949868874378,0.0,0.001090830782496456,0.0,17.75,2.5625,-32.0625
1769121467.8671033,59.08289053588676,1.253485378284356,13.940806012062248,-0.209974781919323,2.308324896967085,9.347952504247116,-0.001090830782496456,0.002181661564992912,0.0,17.75,2.1875,-33.25
1769121467.8797174,59.08289053588676,1.253485378284356,13.940806012062248,-0.209974781919323,2.308324896967085,9.347952504247116,-0.001090830782496456,0.002181661564992912,0.0,17.75,2.1875,-33.25
1769121467.89109,59.08289053588676,1.253485378284356,13.940806012062248,-0.20998321764901387,2.305540125936403,9.348637414448483,0.0,0.002181661564992912,0.0,17.75,2.1875,-33.25
1769121467.902531,59.07392415347517,1.2541864943201146,13.940335653898138,-0.20998883153288989,2.3036868919234146,9.345748102829225,-0.001090830782496456,-0.002181661564992912,0.001090830782496456,17.75,2.1875,-33.25
1769121467.9137197,59.07392415347517,1.2541864943201146,13.940335653898138,-0.20998883153288989,2.3036868919234146,9.345748102829225,-0.001090830782496456,-0.002181661564992912,0.001090830782496456,17.75,2.1875,-33.25
1769121467.9249582,59.07392415347517,1.2541864943201146,13.940335653898138,-0.20999256750989817,2.302453585389751,9.347170409929653,-0.001090830782496456,0.001090830782496456,-0.003272492347489368,17.0625,2.5625,-31.25
1769121467.9362745,59.07392415347517,1.2541864943201146,13.940335653898138,-0.20999256750989817,2.302453585389751,9.347170409929653,-0.001090830782496456,0.001090830782496456,-0.003272492347489368,17.0625,2.5625,-31.25
1769121467.9474394,59.08289053588676,1.253485378284356,13.940806012062248,-0.20999505376086358,2.3016328336685348,9.351462051124095,0.0,0.0,0.0,17.0625,2.5625,-31.25
1769121467.9591014,59.08289053588676,1.253485378284356,13.940806012062248,-0.20999670833310782,2.301086632566463,9.354318090398223,0.0,0.0,0.003272492347489368,17.0625,2.5625,-31.25
1769121467.970256,59.08289053588676,1.253485378284356,13.940806012062248,-0.20999670833310782,2.301086632566463,9.354318090398223,0.0,0.0,0.003272492347489368,17.0625,2.5625,-31.25
1769121467.9818993,59.08289053588676,1.253485378284356,13.940806012062248,-0.20999780943245358,2.3040682535418195,9.356218752631106,0.001090830782496456,0.0,0.0,17.75,2.875,-30.5625
1769121467.994183,59.08289053588676,1.253485378284356,13.940806012062248,-0.20999780943245358,2.3040682535418195,9.356218752631106,0.001090830782496456,0.0,0.0,17.75,2.875,-30.5625
1769121468.005315,59.08289053588676,1.253485378284356,13.940806012062248,-0.20999854220176808,2.3060524889940304,9.36417384552994,0.001090830782496456,0.001090830782496456,-0.001090830782496456,17.75,2.875,-30.5625
1769121468.017253,59.08289053588676,1.253485378284356,13.940806012062248,-0.20999854220176808,2.3060524889940304,9.36417384552994,0.001090830782496456,0.001090830782496456,-0.001090830782496456,17.75,2.875,-30.5625
1769121468.0315542,59.08289053588676,1.253485378284356,13.940806012062248,-0.20999902985156133,2.3073729755221146,9.356087424160627,0.0,0.0,-0.002181661564992912,17.75,2.875,-30.5625
1769121468.0458484,59.08289053588676,1.253485378284356,13.940806012062248,-0.20999902985156133,2.3073729755221146,9.356087424160627,0.0,0.0,-0.002181661564992912,17.75,2.875,-30.5625
1769121468.0601766,59.06671330508284,1.255372243365956,13.940545761262086,-0.20999935437705133,2.3082517445557533,9.357396224485234,-0.001090830782496456,0.001090830782496456,-0.001090830782496456,17.5,2.875,-31.75
1769121468.0748127,59.06671330508284,1.255372243365956,13.940545761262086,-0.20999957034513975,2.3088365555311468,9.354922104773681,-0.001090830782496456,-0.003272492347489368,-0.001090830782496456,17.5,2.875,-31.75
1769121468.0880947,59.06671330508284,1.255372243365956,13.940545761262086,-0.21334482577680944,2.3125708524098236,9.35662071745069,-0.001090830782496456,-0.001090830782496456,0.001090830782496456,17.5,2.875,-31.75
1769121468.1003437,59.06671330508284,1.255372243365956,13.940545761262086,-0.21334482577680944,2.3125708524098236,9.35662071745069,-0.001090830782496456,-0.001090830782496456,0.001090830782496456,17.5,2.875,-31.75
1769121468.1119726,59.06671330508284,1.255372243365956,13.940545761262086,-0.20888083248299516,2.3150559852677537,9.364441348627134,0.0,-0.002181661564992912,0.001090830782496456,17.5,2.5625,-31.25
1769121468.124473,59.06671330508284,1.255372243365956,13.940545761262086,-0.20888083248299516,2.3150559852677537,9.364441348627134,0.0,-0.002181661564992912,0.001090830782496456,17.5,2.5625,-31.25
1769121468.1369314,59.06671330508284,1.255372243365956,13.940545761262086,-0.212600318226673,2.3167098134239534,9.369645891312882,0.0,-0.001090830782496456,0.0,17.5,2.5625,-31.25
1769121468.1481864,59.06671330508284,1.255372243365956,13.940545761262086,-0.212600318226673,2.3167098134239534,9.369645891312882,0.0,-0.001090830782496456,0.0,17.5,2.5625,-31.25
1769121468.1606562,59.06671330508284,1.255372243365956,13.940545761262086,-0.211730482732393,2.3178104175874332,9.366419232917057,0.0,-0.002181661564992912,0.0,17.5,2.5625,-31.25
1769121468.172907,59.06671330508284,1.255372243365956,13.940545761262086,-0.2111516169276488,2.3151977456563557,9.360926816091451,-0.001090830782496456,-0.001090830782496456,0.0,16.6875,2.1875,-31.375
1769121468.1859553,59.06671330508284,1.255372243365956,13.940545761262086,-0.2111516169276488,2.3151977456563557,9.360926816091451,-0.001090830782496456,-0.001090830782496456,0.0,16.6875,2.1875,-31.375
1769121468.1977224,59.06671330508284,1.255372243365956,13.940545761262086,-0.2107663882009463,2.310113929964362,9.360616785755646,0.002181661564992912,0.0,0.001090830782496456,16.6875,2.1875,-31.375
1769121468.2088664,176.23063912984605,-90.0,-165.1947242053363,-0.2105100227866126,2.3067307074112824,9.363755575737754,0.001090830782496456,0.001090830782496456,0.001090830782496456,16.6875,2.1875,-31.375
1769121468.226983,176.23063912984605,-90.0,-165.1947242053363,-0.2105100227866126,2.3067307074112824,9.363755575737754,0.001090830782496456,0.001090830782496456,0.001090830782496456,16.6875,2.1875,-31.375
1769121468.2393582,59.06671330508284,1.255372243365956,13.940545761262086,-0.21033941446716284,2.3044792105952805,9.365844405408264,0.0,-0.001090830782496456,-0.001090830782496456,17.75,2.875,-30.5625
1769121468.2503834,59.06671330508284,1.255372243365956,13.940545761262086,-0.21033941446716284,2.3044792105952805,9.365844405408264,0.0,-0.001090830782496456,-0.001090830782496456,17.75,2.875,-30.5625
1769121468.2613726,59.05774762902238,1.2560733599074487,13.940075402037323,-0.21022587653638883,2.3029808646150984,9.367234498220233,0.001090830782496456,-0.002181661564992912,0.0,17.75,2.875,-30.5625
1769121468.272612,59.05774762902238,1.2560733599074487,13.940075402037323,-0.20680520660444116,2.3019837321029084,9.361469366043606,0.0,0.001090830782496456,0.0,17.75,2.875,-30.5625
1769121468.2838953,59.05774762902238,1.2560733599074487,13.940075402037323,-0.20680520660444116,2.3019837321029084,9.361469366043606,0.0,0.001090830782496456,0.0,17.75,2.875,-30.5625
1769121468.2955155,59.06671330508284,1.255372243365956,13.940545761262086,-0.20452878897611682,2.301320151554746,9.364322958395444,-0.001090830782496456,0.001090830782496456,0.001090830782496456,17.75,2.5625,-31.0
1769121468.3068702,59.06671330508284,1.255372243365956,13.940545761262086,-0.20452878897611682,2.301320151554746,9.364322958395444,-0.001090830782496456,0.001090830782496456,0.001090830782496456,17.75,2.5625,-31.0
1769121468.318497,59.06671330508284,1.255372243365956,13.940545761262086,-0.20301385847371808,2.3008785461126244,9.35953176881424,0.0,0.0,0.0,17.75,2.5625,-31.0
1769121468.3303957,59.06671330508284,1.255372243365956,13.940545761262086,-0.20535080085457366,2.3039297743312677,9.356343285669041,0.0,-0.001090830782496456,0.001090830782496456,17.75,2.5625,-31.0
1769121468.3429935,59.06671330508284,1.255372243365956,13.940545761262086,-0.20535080085457366,2.3039297743312677,9.356343285669041,0.0,-0.001090830782496456,0.001090830782496456,17.75,2.5625,-31.0
1769121468.3603144,59.06671330508284,1.255372243365956,13.940545761262086,-0.20690600990367616,2.3059603326263223,9.354221385753602,0.0,-0.001090830782496456,-0.001090830782496456,18.0625,2.875,-31.0
1769121468.3715026,59.06671330508284,1.255372243365956,13.940545761262086,-0.20690600990367616,2.3059603326263223,9.354221385753602,0.0,-0.001090830782496456,-0.001090830782496456,18.0625,2.875,-31.0
1769121468.3832643,59.06671330508284,1.255372243365956,13.940545761262086,-0.20794098415303047,2.307311646488859,9.352809285063053,0.0,0.0,0.0,18.0625,2.875,-31.0
1769121468.3943224,59.06671330508284,1.255372243365956,13.940545761262086,-0.20794098415303047,2.307311646488859,9.352809285063053,0.0,0.0,0.0,18.0625,2.875,-31.0
1769121468.4067316,59.041572918412314,1.2579602268572363,13.939815149589656,-0.20862974795455586,2.308210930769212,9.36190488294965,-0.001090830782496456,0.002181661564992912,0.001090830782496456,18.0625,2.875,-31.0
1769121468.4177952,59.041572918412314,1.2579602268572363,13.939815149589656,-0.20862974795455586,2.308210930769212,9.36190488294965,-0.001090830782496456,0.002181661564992912,0.001090830782496456,18.0625,2.875,-31.0
1769121468.4293005,59.041572918412314,1.2579602268572363,13.939815149589656,-0.20908811257047522,2.308809394412123,9.357922566616736,-0.001090830782496456,0.0,-0.001090830782496456,17.0625,2.875,-31.25
1769121468.442215,59.041572918412314,1.2579602268572363,13.939815149589656,-0.20908811257047522,2.308809394412123,9.357922566616736,-0.001090830782496456,0.0,-0.001090830782496456,17.0625,2.875,-31.25
1769121468.4533217,58.90491681097094,1.2558116154031507,13.943966900736516,-0.2027029256874625,2.312552776988523,9.365307714704528,-0.001090830782496456,0.0,-0.001090830782496456,17.0625,2.875,-31.25
1769121468.464487,58.90491681097094,1.2558116154031507,13.943966900736516,-0.2027029256874625,2.312552776988523,9.365307714704528,-0.001090830782496456,0.0,-0.001090830782496456,17.0625,2.875,-31.25
1769121468.4761112,58.90491681097094,1.2558116154031507,13.943966900736516,-0.1984536551440286,2.3116988445694746,9.363532224844805,0.0,0.001090830782496456,0.0,17.0625,2.875,-31.25
1769121468.4886675,58.90491681097094,1.2558116154031507,13.943966900736516,-0.1984536551440286,2.3116988445694746,9.363532224844805,0.0,0.001090830782496456,0.0,17.0625,2.875,-31.25
1769121468.5014093,58.9046669570846,1.2592177119250858,13.93775612334558,-0.20566114818679368,2.3077854503763287,9.37238599129864,0.0,0.003272492347489368,-0.001090830782496456,17.0625,3.6875,-31.25
1769121468.5140142,58.9046669570846,1.2592177119250858,13.93775612334558,-0.2104576542937811,2.3051811302562677,9.384968297385253,0.0,0.001090830782496456,-0.001090830782496456,17.0625,3.6875,-31.25
1769121468.5296283,58.9046669570846,1.2592177119250858,13.93775612334558,-0.2104576542937811,2.3051811302562677,9.384968297385253,0.0,0.001090830782496456,-0.001090830782496456,17.0625,3.6875,-31.25
1769121468.544444,58.9046669570846,1.2592177119250858,13.93775612334558,-0.21364967552749728,2.3067930960158485,9.393341681532325,-0.002181661564992912,-0.001090830782496456,0.0,17.0625,3.6875,-31.25
1769121468.5576684,58.9046669570846,1.2592177119250858,13.93775612334558,-0.21364967552749728,2.3067930960158485,9.393341681532325,-0.002181661564992912,-0.001090830782496456,0.0,17.0625,3.6875,-31.25
1769121468.5756624,58.9046669570846,1.2592177119250858,13.93775612334558,-0.21577393000132183,2.307865841222012,9.388878740023415,0.001090830782496456,0.001090830782496456,0.0,17.5,2.5625,-31.0
1769121468.5926685,58.9046669570846,1.2592177119250858,13.93775612334558,-0.21049737420953601,2.311924852880684,9.385908702303558,-0.002181661564992912,-0.001090830782496456,0.001090830782496456,17.5,2.5625,-31.0
1769121468.6044173,58.9046669570846,1.2592177119250858,13.93775612334558,-0.21049737420953601,2.311924852880684,9.385908702303558,-0.002181661564992912,-0.001090830782496456,0.001090830782496456,17.5,2.5625,-31.0
1769121468.6160185,58.9046669570846,1.2592177119250858,13.93775612334558,-0.20698588527309286,2.314626079797399,9.383932175378488,-0.001090830782496456,0.001090830782496456,0.001090830782496456,17.5,2.5625,-31.0
1769121468.6276562,58.9046669570846,1.2592177119250858,13.93775612334558,-0.20698588527309286,2.314626079797399,9.383932175378488,-0.001090830782496456,0.001090830782496456,0.001090830782496456,17.5,2.5625,-31.0
1769121468.6397305,58.9046669570846,1.2592177119250858,13.93775612334558,-0.20464902861179157,2.3130786044284717,9.392652153911065,0.0,0.001090830782496456,-0.002181661564992912,17.75,2.875,-31.0
1769121468.6510684,58.9046669570846,1.2592177119250858,13.93775612334558,-0.20464902861179157,2.3130786044284717,9.392652153911065,0.0,0.001090830782496456,-0.002181661564992912,17.75,2.875,-31.0
1769121468.66401,58.9046669570846,1.2592177119250858,13.93775612334558,-0.20643898831541427,2.312048776856883,9.398455202215953,-0.002181661564992912,0.0,-0.001090830782496456,17.75,2.875,-31.0
1769121468.675309,58.9046669570846,1.2592177119250858,13.93775612334558,-0.20763018650301515,2.311363438111919,9.402317066038558,-0.001090830782496456,0.001090830782496456,0.001090830782496456,17.75,2.875,-31.0
1769121468.6867487,58.9046669570846,1.2592177119250858,13.93775612334558,-0.20763018650301515,2.311363438111919,9.402317066038558,-0.001090830782496456,0.001090830782496456,0.001090830782496456,17.75,2.875,-31.0
1769121468.7034442,58.9046669570846,1.2592177119250858,13.93775612334558,-0.2084229155903079,2.3142524645402,9.404887093272656,0.0,0.001090830782496456,-0.002181661564992912,17.75,2.875,-31.0
1769121468.7149692,58.80738397501185,1.2555140038208106,13.9360342240507,-0.20895046794253708,2.316175079355681,9.399907194273224,-0.001090830782496456,0.001090830782496456,-0.002181661564992912,16.25,2.875,-31.75
1769121468.7260442,58.80738397501185,1.2555140038208106,13.9360342240507,-0.20895046794253708,2.316175079355681,9.399907194273224,-0.001090830782496456,0.001090830782496456,-0.002181661564992912,16.25,2.875,-31.75
1769121468.7379792,58.80738397501185,1.2555140038208106,13.9360342240507,-0.20595643643248032,2.3207996697456883,9.39659312711822,-0.001090830782496456,-0.001090830782496456,-0.001090830782496456,16.25,2.875,-31.75
1769121468.7492273,58.80738397501185,1.2555140038208106,13.9360342240507,-0.20595643643248032,2.3207996697456883,9.39659312711822,-0.001090830782496456,-0.001090830782496456,-0.001090830782496456,16.25,2.875,-31.75
1769121468.760994,58.80738397501185,1.2555140038208106,13.9360342240507,-0.20730905361538035,2.320532171282859,9.394387652447119,-0.003272492347489368,-0.001090830782496456,-0.001090830782496456,16.25,2.875,-31.75
1769121468.7735822,58.80738397501185,1.2555140038208106,13.9360342240507,-0.20820920524087635,2.3170090423366805,9.38622971027563,-0.001090830782496456,0.0,-0.001090830782496456,17.0625,2.5625,-31.375
1769121468.7854285,58.80738397501185,1.2555140038208106,13.9360342240507,-0.20820920524087635,2.3170090423366805,9.38622971027563,-0.001090830782496456,0.0,-0.001090830782496456,17.0625,2.5625,-31.375
1769121468.797121,58.784297586986625,1.2551860760333038,13.94220541394849,-0.2121533577996108,2.314664439378928,9.38414580259801,0.001090830782496456,-0.001090830782496456,0.001090830782496456,17.0625,2.5625,-31.375
1769121468.8084352,58.784297586986625,1.2551860760333038,13.94220541394849,-0.2121533577996108,2.314664439378928,9.38414580259801,0.001090830782496456,-0.001090830782496456,0.001090830782496456,17.0625,2.5625,-31.375
1769121468.820461,58.784297586986625,1.2551860760333038,13.94220541394849,-0.21143303556105825,2.3131041323014747,9.382758985317325,-0.001090830782496456,-0.001090830782496456,0.0,17.0625,2.5625,-31.375
1769121468.8347678,58.784297586986625,1.2551860760333038,13.94220541394849,-0.21143303556105825,2.3131041323014747,9.382758985317325,-0.001090830782496456,-0.001090830782496456,0.0,17.0625,2.5625,-31.375
1769121468.847245,58.784297586986625,1.2551860760333038,13.94220541394849,-0.21095366915782815,2.315410877078521,9.385181185616114,-0.001090830782496456,-0.001090830782496456,0.001090830782496456,17.0625,2.875,-31.75
1769121468.860517,58.79148865993562,1.2540007540609317,13.941992407450979,-0.2106346561713521,2.3169459899596174,9.386793132857207,0.0,0.002181661564992912,0.0,17.0625,2.875,-31.75
1769121468.8715057,58.79148865993562,1.2540007540609317,13.941992407450979,-0.2106346561713521,2.3169459899596174,9.386793132857207,0.0,0.002181661564992912,0.0,17.0625,2.875,-31.75
1769121468.885604,58.79148865993562,1.2540007540609317,13.941992407450979,-0.21042235659246086,2.317967590433653,9.387865865739524,-0.001090830782496456,-0.002181661564992912,0.0,17.0625,2.875,-31.75
1769121468.8980083,58.79148865993562,1.2540007540609317,13.941992407450979,-0.21042235659246086,2.317967590433653,9.387865865739524,-0.001090830782496456,-0.002181661564992912,0.0,17.0625,2.875,-31.75
1769121468.9123416,58.79148865993562,1.2540007540609317,13.941992407450979,-0.2102810735942504,2.321992565844418,9.388579757489495,0.001090830782496456,0.0,0.0,17.5,2.5625,-31.375
1769121468.926707,58.79148865993562,1.2540007540609317,13.941992407450979,-0.2102810735942504,2.321992565844418,9.388579757489495,0.001090830782496456,0.0,0.0,17.5,2.5625,-31.375
1769121468.9406097,58.79148865993562,1.2540007540609317,13.941992407450979,-0.21018705133717586,2.3213260303110412,9.385709732767088,0.0,0.002181661564992912,-0.002181661564992912,17.5,2.5625,-31.375
1769121468.9529057,58.79148865993562,1.2540007540609317,13.941992407450979,-0.21018705133717586,2.3213260303110412,9.385709732767088,0.0,0.002181661564992912,-0.002181661564992912,17.5,2.5625,-31.375
1769121468.9703941,58.79148865993562,1.2540007540609317,13.941992407450979,-0.21012448057539018,2.3175373466519495,9.383799763374602,0.0,0.004363323129985824,-0.001090830782496456,17.5,2.5625,-31.375
1769121468.9867802,58.79148865993562,1.2540007540609317,13.941992407450979,-0.210082840432383,2.3150160199991934,9.385873811786979,0.0,0.002181661564992912,0.001090830782496456,17.0625,2.1875,-32.0625
1769121468.9993243,58.79148865993562,1.2540007540609317,13.941992407450979,-0.210082840432383,2.3150160199991934,9.385873811786979,0.0,0.002181661564992912,0.001090830782496456,17.0625,2.1875,-32.0625
1769121469.0114727,58.80044191374646,1.2532983571079999,13.942461104108144,-0.21005512938236262,2.3133381052768485,9.390599179544097,-0.001090830782496456,0.001090830782496456,-0.001090830782496456,17.0625,2.1875,-32.0625
1769121469.0224934,58.80044191374646,1.2532983571079999,13.942461104108144,-0.21003668798812677,2.3122214717726632,9.393743859000642,0.002181661564992912,-0.001090830782496456,0.0,17.0625,2.1875,-32.0625
1769121469.0343423,58.80044191374646,1.2532983571079999,13.942461104108144,-0.21003668798812677,2.3122214717726632,9.393743859000642,0.002181661564992912,-0.001090830782496456,0.0,17.0625,2.1875,-32.0625
1769121469.0452566,58.77534504380387,1.255888473493048,13.94173671625281,-0.21002441544626668,2.314823476356561,9.395836608050601,-0.001090830782496456,0.0,-0.001090830782496456,17.5,2.1875,-32.5625
1769121469.056295,58.77534504380387,1.255888473493048,13.94173671625281,-0.21002441544626668,2.314823476356561,9.395836608050601,-0.001090830782496456,0.0,-0.001090830782496456,17.5,2.1875,-32.5625
1769121469.0670173,58.77534504380387,1.255888473493048,13.94173671625281,-0.21001624820675208,2.3165550813408493,9.40391953258045,0.0,0.001090830782496456,0.0,17.5,2.1875,-32.5625
1769121469.0787845,58.77534504380387,1.255888473493048,13.94173671625281,-0.21335592470740852,2.317707445114598,9.399263293440923,0.001090830782496456,0.0,0.002181661564992912,17.5,2.1875,-32.5625
1769121469.089547,58.77534504380387,1.255888473493048,13.94173671625281,-0.21335592470740852,2.317707445114598,9.399263293440923,0.001090830782496456,0.0,0.002181661564992912,17.5,2.1875,-32.5625
1769121469.100415,58.7825356194242,1.254703151202353,13.941523708890164,-0.21557844211196445,2.318474330333281,9.396164618307166,0.001090830782496456,0.0,0.0,17.0625,2.1875,-31.25
1769121469.1112106,58.7825356194242,1.254703151202353,13.941523708890164,-0.21804180086182917,2.319324318463728,9.392730157686934,-0.001090830782496456,0.003272492347489368,-0.001090830782496456,17.0625,2.1875,-31.25
1769121469.1622226,58.734685712584714,1.2547932459253228,13.937908686583048,-0.21869684034806497,2.3228954531927877,9.391816889442795,-0.001090830782496456,-0.001090830782496456,0.0,17.0625,2.1875,-31.25
1769121469.1732073,58.734685712584714,1.2547932459253228,13.937908686583048,-0.21244253839424562,2.318581780048149,9.387864007920877,0.002181661564992912,0.004363323129985824,-0.001090830782496456,17.5,3.25,-32.0625
1769121469.1840372,58.734685712584714,1.2547932459253228,13.937908686583048,-0.21244253839424562,2.318581780048149,9.387864007920877,0.002181661564992912,0.004363323129985824,-0.001090830782496456,17.5,3.25,-32.0625
1769121469.1949978,58.734685712584714,1.2547932459253228,13.937908686583048,-0.20828037030910942,2.319056190464598,9.3818882977173,0.001090830782496456,0.001090830782496456,0.001090830782496456,17.5,3.25,-32.0625
1769121469.2057807,58.734685712584714,1.2547932459253228,13.937908686583048,-0.20551049394291526,2.3193719052972335,9.377911529329877,0.001090830782496456,-0.001090830782496456,0.0,17.5,3.25,-32.0625
1769121469.216513,58.734685712584714,1.2547932459253228,13.937908686583048,-0.20551049394291526,2.3193719052972335,9.377911529329877,0.001090830782496456,-0.001090830782496456,0.0,17.5,3.25,-32.0625
1769121469.2272835,58.734685712584714,1.2547932459253228,13.937908686583048,-0.20366717216275942,2.3195820099915863,9.37526503439146,0.0,0.0,-0.002181661564992912,17.5,3.25,-32.0625
1769121469.238347,58.734685712584714,1.2547932459253228,13.937908686583048,-0.20366717216275942,2.3195820099915863,9.37526503439146,0.0,0.0,-0.002181661564992912,17.5,3.25,-32.0625
1769121469.249152,58.734685712584714,1.2547932459253228,13.937908686583048,-0.2057855738166386,2.319721832318655,9.386884268402506,0.001090830782496456,0.0,0.0,18.0625,2.875,-33.0
1769121469.2600663,58.734685712584714,1.2547932459253228,13.937908686583048,-0.20719534645319815,2.3198148825154012,9.384581403719551,0.0,0.001090830782496456,0.001090830782496456,18.0625,2.875,-33.0
1769121469.2709496,58.734685712584714,1.2547932459253228,13.937908686583048,-0.20719534645319815,2.3198148825154012,9.384581403719551,0.0,0.001090830782496456,0.001090830782496456,18.0625,2.875,-33.0
1769121469.2836561,58.734685712584714,1.2547932459253228,13.937908686583048,-0.2081335343946363,2.323221918089217,9.383048872997728,0.0,-0.001090830782496456,0.001090830782496456,18.0625,2.875,-33.0
1769121469.2945514,58.734685712584714,1.2547932459253228,13.937908686583048,-0.2087578879894174,2.32548926220451,9.382028990921846,0.0,0.0,0.0,18.0625,2.875,-33.0
1769121469.305281,58.734685712584714,1.2547932459253228,13.937908686583048,-0.2087578879894174,2.32548926220451,9.382028990921846,0.0,0.0,0.0,18.0625,2.875,-33.0
1769121469.3160012,58.734685712584714,1.2547932459253228,13.937908686583048,-0.2091733883322576,2.326998154385344,9.378005159085856,0.001090830782496456,0.003272492347489368,0.001090830782496456,16.6875,2.1875,-31.375
1769121469.3267465,58.734685712584714,1.2547932459253228,13.937908686583048,-0.2091733883322576,2.326998154385344,9.378005159085856,0.001090830782496456,0.003272492347489368,0.001090830782496456,16.6875,2.1875,-31.375
1769121469.3381512,58.734685712584714,1.2547932459253228,13.937908686583048,-0.20944989916897477,2.328002305276259,9.38536267907011,0.001090830782496456,0.003272492347489368,0.0,16.6875,2.1875,-31.375
1769121469.3491993,58.68653054005609,1.2570605596441247,13.94336149638689,-0.20963391404198164,2.325325444769743,9.390259026430746,0.0,0.002181661564992912,-0.002181661564992912,16.6875,2.1875,-31.375
1769121469.3614776,58.68653054005609,1.2570605596441247,13.94336149638689,-0.20963391404198164,2.325325444769743,9.390259026430746,0.0,0.002181661564992912,-0.002181661564992912,16.6875,2.1875,-31.375
1769121469.3723261,58.68653054005609,1.2570605596441247,13.94336149638689,-0.2097563738843869,2.323544024005148,9.393517490903466,0.0,0.002181661564992912,-0.002181661564992912,16.25,2.5625,-32.0625
1769121469.3838174,58.68653054005609,1.2570605596441247,13.94336149638689,-0.2097563738843869,2.323544024005148,9.393517490903466,0.0,0.002181661564992912,-0.002181661564992912,16.25,2.5625,-32.0625
1769121469.3951225,58.68653054005609,1.2570605596441247,13.94336149638689,-0.20983786954154152,2.322358508386084,9.395685962610628,0.003272492347489368,0.001090830782496456,0.0,16.25,2.5625,-32.0625
1769121469.4058688,58.711362526691246,1.2578654351381533,13.9378672448377,-0.20989210399101177,2.3215695609846736,9.403819279722967,0.001090830782496456,0.0,0.001090830782496456,16.25,2.5625,-32.0625
1769121469.4166133,58.711362526691246,1.2578654351381533,13.9378672448377,-0.20989210399101177,2.3215695609846736,9.403819279722967,0.001090830782496456,0.0,0.001090830782496456,16.25,2.5625,-32.0625
1769121469.427488,58.711362526691246,1.2578654351381533,13.9378672448377,-0.20992819641129573,2.317699413594836,9.409231911406124,-0.001090830782496456,-0.001090830782496456,0.001090830782496456,16.25,2.5625,-32.0625
1769121469.4385102,58.711362526691246,1.2578654351381533,13.9378672448377,-0.20995221551381596,2.3184689854465974,9.402798622206248,-0.001090830782496456,0.0,-0.001090830782496456,17.0625,1.75,-32.0625
1769121469.450942,58.711362526691246,1.2578654351381533,13.9378672448377,-0.20995221551381596,2.3184689854465974,9.402798622206248,-0.001090830782496456,0.0,-0.001090830782496456,17.0625,1.75,-32.0625
1769121469.4629018,58.70241327615179,1.258567833318559,13.9373989520813,-0.2099681999582322,2.322326238624583,9.398517340108281,0.0,0.001090830782496456,0.0,17.0625,1.75,-32.0625
1769121469.4744153,58.70241327615179,1.258567833318559,13.9373989520813,-0.20997883742743328,2.3248931975261913,9.395668194697137,0.0,-0.002181661564992912,-0.001090830782496456,17.0625,1.75,-32.0625
1769121469.485414,58.70241327615179,1.258567833318559,13.9373989520813,-0.20997883742743328,2.3248931975261913,9.395668194697137,0.0,-0.002181661564992912,-0.001090830782496456,17.0625,1.75,-32.0625
1769121469.4965882,58.70241327615179,1.258567833318559,13.9373989520813,-0.20998591654435828,2.326601480000402,9.397117231960381,-0.001090830782496456,0.0,0.002181661564992912,17.0625,1.75,-32.0625
1769121469.5075026,58.70241327615179,1.258567833318559,13.9373989520813,-0.20998591654435828,2.326601480000402,9.397117231960381,-0.001090830782496456,0.0,0.002181661564992912,17.0625,1.75,-32.0625
1769121469.5184808,58.70241327615179,1.258567833318559,13.9373989520813,-0.21333573932491232,2.3277383229042234,9.398081550072263,-0.001090830782496456,-0.002181661564992912,0.0,17.5,2.5625,-32.0625
1769121469.52989,58.70241327615179,1.258567833318559,13.9373989520813,-0.21333573932491232,2.3277383229042234,9.398081550072263,-0.001090830782496456,-0.002181661564992912,0.0,17.5,2.5625,-32.0625
1769121469.5412018,58.70241327615179,1.258567833318559,13.9373989520813,-0.2155650089653987,2.32514976745003,9.398723293003581,0.0,0.0,-0.001090830782496456,17.5,2.5625,-32.0625
1769121469.5529222,58.71854858949334,1.256680538940076,13.937653819613534,-0.21370345130124946,2.323427112711323,9.399150365755634,-0.001090830782496456,0.0,0.001090830782496456,17.5,2.5625,-32.0625
1769121469.5664847,58.71854858949334,1.256680538940076,13.937653819613534,-0.21370345130124946,2.323427112711323,9.399150365755634,-0.001090830782496456,0.0,0.001090830782496456,17.5,2.5625,-32.0625
1769121469.5840983,58.71854858949334,1.256680538940076,13.937653819613534,-0.21246460547071977,2.322280705226028,9.392744354486773,0.001090830782496456,-0.001090830782496456,0.0,17.5,2.1875,-31.75
1769121469.5961905,58.71854858949334,1.256680538940076,13.937653819613534,-0.21246460547071977,2.322280705226028,9.392744354486773,0.001090830782496456,-0.001090830782496456,0.0,17.5,2.1875,-31.75
1769121469.6151905,58.70241327615179,1.258567833318559,13.9373989520813,-0.20829505570199758,2.3181726721434557,9.38848122554718,-0.001090830782496456,-0.001090830782496456,0.0,17.5,2.1875,-31.75
1769121469.6304142,58.70241327615179,1.258567833318559,13.9373989520813,-0.20829505570199758,2.3181726721434557,9.38848122554718,-0.001090830782496456,-0.001090830782496456,0.0,17.5,2.1875,-31.75
1769121469.6435528,58.70241327615179,1.258567833318559,13.9373989520813,-0.2088653786151551,2.322129045431379,9.388989272567471,0.0,0.002181661564992912,-0.002181661564992912,17.5,3.25,-31.0
1769121469.655548,58.70241327615179,1.258567833318559,13.9373989520813,-0.2088653786151551,2.322129045431379,9.388989272567471,0.0,0.002181661564992912,-0.002181661564992912,17.5,3.25,-31.0
1769121469.6696577,58.68653054005609,1.2570605596441247,13.94336149638689,-0.20924492214293708,2.3247619676589064,9.392672483891538,0.0,0.0,0.0,17.5,3.25,-31.0
1769121469.6813262,58.68653054005609,1.2570605596441247,13.94336149638689,-0.20924492214293708,2.3247619676589064,9.392672483891538,0.0,0.0,0.0,17.5,3.25,-31.0
1769121469.6932375,58.68653054005609,1.2570605596441247,13.94336149638689,-0.20949750412089696,2.3265141479896574,9.391778508176218,0.0,0.0,0.001090830782496456,17.5,3.25,-31.0
1769121469.7045166,58.68653054005609,1.2570605596441247,13.94336149638689,-0.20949750412089696,2.3265141479896574,9.391778508176218,0.0,0.0,0.001090830782496456,17.5,3.25,-31.0
1769121469.7167716,58.711362526691246,1.2578654351381533,13.9378672448377,-0.21635581802034246,2.3276802044266356,9.394528689031354,-0.001090830782496456,-0.002181661564992912,-0.001090830782496456,17.75,2.5625,-30.5625
1769121469.727986,58.711362526691246,1.2578654351381533,13.9378672448377,-0.21635581802034246,2.3276802044266356,9.394528689031354,-0.001090830782496456,-0.002181661564992912,-0.001090830782496456,17.75,2.5625,-30.5625
1769121469.7393157,58.711362526691246,1.2578654351381533,13.9378672448377,-0.21422972589339856,2.3284562019597406,9.396358903668915,0.001090830782496456,0.001090830782496456,0.001090830782496456,17.75,2.5625,-30.5625
1769121469.7519443,58.87141438242348,1.253535335998109,13.939914260628981,-0.21281483533292261,2.3289726196495613,9.397576891065373,0.0,0.002181661564992912,0.0,17.75,2.5625,-30.5625
1769121469.763148,58.87141438242348,1.253535335998109,13.939914260628981,-0.21281483533292261,2.3289726196495613,9.397576891065373,0.0,0.002181661564992912,0.0,17.75,2.5625,-30.5625
1769121469.7747054,58.87141438242348,1.253535335998109,13.939914260628981,-0.21187324147028905,2.3293162898533737,9.395042336364588,0.0,0.0,0.001090830782496456,18.0625,1.75,-31.0
1769121469.7858691,58.87141438242348,1.253535335998109,13.939914260628981,-0.21187324147028905,2.3293162898533737,9.395042336364588,0.0,0.0,0.001090830782496456,18.0625,1.75,-31.0
1769121469.797686,58.87141438242348,1.253535335998109,13.939914260628981,-0.21124662127299904,2.3261998868276437,9.393355618524046,-0.001090830782496456,0.0,0.001090830782496456,18.0625,1.75,-31.0
1769121469.808676,58.87141438242348,1.253535335998109,13.939914260628981,-0.21124662127299904,2.3261998868276437,9.393355618524046,-0.001090830782496456,0.0,0.001090830782496456,18.0625,1.75,-31.0
1769121469.8215284,58.84806559727494,1.2566079507219974,13.939869503896613,-0.21082961253150878,2.3241259554265232,9.395578238350357,0.001090830782496456,0.0,0.002181661564992912,18.0625,1.75,-31.0
1769121469.8359616,58.84806559727494,1.2566079507219974,13.939869503896613,-0.21389720957965927,2.3227457772464093,9.397057367016476,0.0,0.0,0.0,18.0625,3.6875,-31.25
1769121469.8476183,58.84806559727494,1.2566079507219974,13.939869503896613,-0.21389720957965927,2.3227457772464093,9.397057367016476,0.0,0.0,0.0,18.0625,3.6875,-31.25
1769121469.8607447,58.864217639281975,1.2547206577596541,13.940126440457371,-0.20924843773326035,2.3184821723778244,9.398041710620829,-0.001090830782496456,0.0,0.0,18.0625,3.6875,-31.25
1769121469.87385,58.864217639281975,1.2547206577596541,13.940126440457371,-0.20924843773326035,2.3184821723778244,9.398041710620829,-0.001090830782496456,0.0,0.0,18.0625,3.6875,-31.25
1769121469.8863792,58.864217639281975,1.2547206577596541,13.940126440457371,-0.20949984370698538,2.315644790965368,9.398696780293687,0.001090830782496456,-0.002181661564992912,0.001090830782496456,18.0625,3.6875,-31.25
1769121469.897917,58.864217639281975,1.2547206577596541,13.940126440457371,-0.20949984370698538,2.315644790965368,9.398696780293687,0.001090830782496456,-0.002181661564992912,0.001090830782496456,18.0625,3.6875,-31.25
1769121469.9096255,58.79148865993562,1.2540007540609317,13.941992407450979,-0.20966715157411064,2.317101657038325,9.399132721843367,-0.001090830782496456,0.001090830782496456,0.0,17.0625,3.25,-31.75
1769121469.9226053,58.79148865993562,1.2540007540609317,13.941992407450979,-0.20966715157411064,2.317101657038325,9.399132721843367,-0.001090830782496456,0.001090830782496456,0.0,17.0625,3.25,-31.75
1769121469.938084,58.79148865993562,1.2540007540609317,13.941992407450979,-0.20977849309073118,2.3247614085502564,9.399422836074892,0.0,0.0,0.001090830782496456,17.0625,3.25,-31.75
1769121469.9504678,58.839109906393055,1.2573099215743615,13.939400385990789,-0.2098525896262759,2.323168664201777,9.392925680440547,-0.002181661564992912,-0.001090830782496456,0.002181661564992912,17.0625,3.25,-31.75
1769121469.962083,58.839109906393055,1.2573099215743615,13.939400385990789,-0.2098525896262759,2.323168664201777,9.392925680440547,-0.002181661564992912,-0.001090830782496456,0.002181661564992912,17.0625,3.25,-31.75
1769121469.9765577,58.839109906393055,1.2573099215743615,13.939400385990789,-0.2098525896262759,2.323168664201777,9.392925680440547,-0.002181661564992912,-0.001090830782496456,0.002181661564992912,17.0625,3.25,-31.75
1769121469.992469,58.839109906393055,1.2573099215743615,13.939400385990789,-0.20990190004296838,2.3254538223373036,9.388601895943873,-0.003272492347489368,-0.001090830782496456,0.0,17.75,2.1875,-31.0
1769121470.0060546,58.77534504380387,1.255888473493048,13.94173671625281,-0.2099347155744438,2.3269745695496074,9.389069577368494,-0.002181661564992912,-0.001090830782496456,0.0,17.75,2.1875,-31.0
1769121470.0211594,58.77534504380387,1.255888473493048,13.94173671625281,-0.2099347155744438,2.3269745695496074,9.389069577368494,-0.002181661564992912,-0.001090830782496456,0.0,17.75,2.1875,-31.0
1769121470.0354857,58.77534504380387,1.255888473493048,13.94173671625281,-0.21330166565138656,2.3279866098315365,9.389380814132235,0.001090830782496456,-0.002181661564992912,0.0,17.75,2.1875,-31.0
1769121470.0467963,58.77534504380387,1.255888473493048,13.94173671625281,-0.21330166565138656,2.3279866098315365,9.389380814132235,0.001090830782496456,-0.002181661564992912,0.0,17.75,2.1875,-31.0
1769121470.0589962,58.76639271423592,1.256590871141566,13.941268016653508,-0.20885210990165642,2.3286601113339294,9.389587938721762,0.0,-0.002181661564992912,-0.002181661564992912,17.0625,2.875,-31.0
1769121470.0700376,58.76639271423592,1.256590871141566,13.941268016653508,-0.20885210990165642,2.3286601113339294,9.389587938721762,0.0,-0.002181661564992912,-0.002181661564992912,17.0625,2.875,-31.0
1769121470.0811124,58.76639271423592,1.256590871141566,13.941268016653508,-0.2125812036696443,2.3291083190602673,9.38972577782236,-0.001090830782496456,-0.001090830782496456,0.002181661564992912,17.0625,2.875,-31.0
1769121470.094327,58.76639271423592,1.256590871141566,13.941268016653508,-0.20837265050089462,2.3294065962953368,9.389817508204043,0.0,0.001090830782496456,-0.002181661564992912,17.0625,2.875,-31.0
1769121470.1083555,58.76639271423592,1.256590871141566,13.941268016653508,-0.20837265050089462,2.3294065962953368,9.389817508204043,0.0,0.001090830782496456,-0.002181661564992912,17.0625,2.875,-31.0
1769121470.1237345,58.7436363863652,1.2540908487597167,13.938376977271552,-0.21226212879434977,2.3296050964633004,9.389878553748359,0.0,-0.001090830782496456,0.0,17.0625,2.875,-32.0625
1769121470.1352365,58.7436363863652,1.2540908487597167,13.938376977271552,-0.2115054214430054,2.3230469726930494,9.389919178876177,-0.001090830782496456,-0.003272492347489368,0.002181661564992912,17.0625,2.875,-32.0625
1769121470.1489165,58.7436363863652,1.2540908487597167,13.938376977271552,-0.2115054214430054,2.3230469726930494,9.389919178876177,-0.001090830782496456,-0.003272492347489368,0.002181661564992912,17.0625,2.875,-32.0625
1769121470.1607955,58.71854858949334,1.256680538940076,13.937653819613534,-0.2143469528609801,2.3186826145829897,9.379910879322969,0.0,-0.001090830782496456,-0.001090830782496456,17.0625,2.875,-32.0625
1769121470.1726594,58.71854858949334,1.256680538940076,13.937653819613534,-0.2143469528609801,2.3186826145829897,9.379910879322969,0.0,-0.001090830782496456,-0.001090830782496456,17.0625,2.875,-32.0625
1769121470.1842282,58.71854858949334,1.256680538940076,13.937653819613534,-0.2162379602776565,2.319123294721139,9.37325046777034,-0.001090830782496456,-0.001090830782496456,0.001090830782496456,17.0625,2.875,-31.75
1769121470.1958387,58.71854858949334,1.256680538940076,13.937653819613534,-0.21749640458951766,2.3194165624303573,9.375508261698377,0.0,0.0,-0.001090830782496456,17.0625,2.875,-31.75
1769121470.2072308,58.71854858949334,1.256680538940076,13.937653819613534,-0.21749640458951766,2.3194165624303573,9.375508261698377,0.0,0.0,-0.001090830782496456,17.0625,2.875,-31.75
1769121470.2186527,58.71854858949334,1.256680538940076,13.937653819613534,-0.21498877351399784,2.3196117288148272,9.380355910043594,0.0,-0.002181661564992912,-0.002181661564992912,17.0625,2.875,-31.75
1769121470.2301385,58.71854858949334,1.256680538940076,13.937653819613534,-0.21498877351399784,2.3196117288148272,9.380355910043594,0.0,-0.002181661564992912,-0.002181661564992912,17.0625,2.875,-31.75
1769121470.2426524,58.71854858949334,1.256680538940076,13.937653819613534,-0.20997486133799456,2.3197416098635406,9.383581965865556,0.0,0.0,0.0,17.5,3.25,-32.5625
1769121470.2555618,58.71854858949334,1.256680538940076,13.937653819613534,-0.20997486133799456,2.3197416098635406,9.383581965865556,0.0,0.0,0.0,17.5,3.25,-32.5625
1769121470.2672598,58.71854858949334,1.256680538940076,13.937653819613534,-0.20329304708661386,2.319828044250593,9.385728869977667,0.0,-0.002181661564992912,0.0,17.5,3.25,-32.5625
1769121470.2825856,58.71854858949334,1.256680538940076,13.937653819613534,-0.20329304708661386,2.319828044250593,9.385728869977667,0.0,-0.002181661564992912,0.0,17.5,3.25,-32.5625
1769121470.3016067,58.71854858949334,1.256680538940076,13.937653819613534,-0.20219148605039527,2.319885565369641,9.387157610681786,-0.001090830782496456,0.002181661564992912,0.0,17.5,3.25,-32.5625
1769121470.3137195,58.71854858949334,1.256680538940076,13.937653819613534,-0.20219148605039527,2.319885565369641,9.387157610681786,-0.001090830782496456,0.002181661564992912,0.0,17.5,3.25,-32.5625
1769121470.3253114,58.71854858949334,1.256680538940076,13.937653819613534,-0.20145840948603486,2.316578733324495,9.394798645074937,0.0,0.002181661564992912,-0.001090830782496456,17.75,2.5625,-32.0625
1769121470.3385231,58.71854858949334,1.256680538940076,13.937653819613534,-0.20431566692877415,2.3177231852455042,9.399883668107632,0.0,-0.001090830782496456,0.001090830782496456,17.75,2.5625,-32.0625
1769121470.3510997,58.71854858949334,1.256680538940076,13.937653819613534,-0.20431566692877415,2.3177231852455042,9.399883668107632,0.0,-0.001090830782496456,0.001090830782496456,17.75,2.5625,-32.0625
1769121470.3663049,58.71854858949334,1.256680538940076,13.937653819613534,-0.20621713983926018,2.3184848052145703,9.396577470717823,0.001090830782496456,-0.002181661564992912,0.0,17.75,2.5625,-32.0625
1769121470.3780808,58.71854858949334,1.256680538940076,13.937653819613534,-0.20621713983926018,2.3184848052145703,9.396577470717823,0.001090830782496456,-0.002181661564992912,0.0,17.75,2.5625,-32.0625
1769121470.389258,58.71854858949334,1.256680538940076,13.937653819613534,-0.20748254882034448,2.318991654796131,9.39437723328755,0.001090830782496456,0.0,-0.001090830782496456,17.75,3.25,-31.25
1769121470.4004083,58.71854858949334,1.256680538940076,13.937653819613534,-0.20748254882034448,2.318991654796131,9.39437723328755,0.001090830782496456,0.0,-0.001090830782496456,17.75,3.25,-31.25
1769121470.4116504,48.09883018998778,90.0,-152.63920816092872,-0.20832466436171154,2.319328957530779,9.389567888148646,0.0,-0.002181661564992912,0.0,17.75,3.25,-31.25
1769121470.4244835,48.09883018998778,90.0,-152.63920816092872,-0.20832466436171154,2.319328957530779,9.389567888148646,0.0,-0.002181661564992912,0.0,17.75,3.25,-31.25
1769121470.4376643,58.71854858949334,1.256680538940076,13.937653819613534,-0.21223019455476375,2.319553428732769,9.38971243438993,-0.002181661564992912,0.001090830782496456,0.0,17.75,3.25,-31.25
1769121470.4491465,58.71854858949334,1.256680538940076,13.937653819613534,-0.21223019455476375,2.319553428732769,9.38971243438993,-0.002181661564992912,0.001090830782496456,0.0,17.75,3.25,-31.25
1769121470.4609284,58.71854858949334,1.256680538940076,13.937653819613534,-0.21482928127060913,2.323047923517505,9.389808628298816,-0.002181661564992912,-0.001090830782496456,0.0,17.5,2.5625,-32.0625
1769121470.4723191,58.71854858949334,1.256680538940076,13.937653819613534,-0.21482928127060913,2.323047923517505,9.389808628298816,-0.002181661564992912,-0.001090830782496456,0.0,17.5,2.5625,-32.0625
1769121470.4873555,58.71854858949334,1.256680538940076,13.937653819613534,-0.21990405615362263,2.322028359053363,9.389872644270625,-0.001090830782496456,0.001090830782496456,0.0,17.5,2.5625,-32.0625
1769121470.505726,58.71854858949334,1.256680538940076,13.937653819613534,-0.22328126214931823,2.321349850291758,9.386570134477438,0.0,-0.003272492347489368,-0.001090830782496456,17.5,2.5625,-32.0625
1769121470.5171893,58.71854858949334,1.256680538940076,13.937653819613534,-0.218838531598952,2.320898310290349,9.384372351101524,0.001090830782496456,-0.001090830782496456,-0.001090830782496456,17.75,2.1875,-31.75
1769121470.529672,58.71854858949334,1.256680538940076,13.937653819613534,-0.218838531598952,2.320898310290349,9.384372351101524,0.001090830782496456,-0.001090830782496456,-0.001090830782496456,17.75,2.1875,-31.75
1769121470.5409122,58.71854858949334,1.256680538940076,13.937653819613534,-0.21253683233891596,2.3205978154634437,9.386254862523021,0.0,0.0,0.002181661564992912,17.75,2.1875,-31.75
1769121470.5522492,58.71854858949334,1.256680538940076,13.937653819613534,-0.21253683233891596,2.3205978154634437,9.386254862523021,0.0,0.0,0.002181661564992912,17.75,2.1875,-31.75
1769121470.5655582,58.71854858949334,1.256680538940076,13.937653819613534,-0.21168823358327454,2.323742951220205,9.390852764552317,-0.001090830782496456,-0.002181661564992912,0.001090830782496456,17.75,2.1875,-31.75
1769121470.5768938,58.71854858949334,1.256680538940076,13.937653819613534,-0.21168823358327454,2.323742951220205,9.390852764552317,-0.001090830782496456,-0.002181661564992912,0.001090830782496456,17.75,2.1875,-31.75
1769121470.5891144,58.71854858949334,1.256680538940076,13.937653819613534,-0.2111235005908644,2.325836003932861,9.393912616990882,-0.001090830782496456,-0.001090830782496456,-0.001090830782496456,17.0625,2.5625,-32.5625
1769121470.6018364,58.71854858949334,1.256680538940076,13.937653819613534,-0.2111235005908644,2.325836003932861,9.393912616990882,-0.001090830782496456,-0.001090830782496456,-0.001090830782496456,17.0625,2.5625,-32.5625
1769121470.6129553,58.71854858949334,1.256680538940076,13.937653819613534,-0.2140927888002157,2.323883795424883,9.405984249729913,-0.001090830782496456,-0.001090830782496456,0.0,17.0625,2.5625,-32.5625
1769121470.6258578,58.71854858949334,1.256680538940076,13.937653819613534,-0.21606881693441637,2.3225846224704223,9.414017786468765,0.001090830782496456,0.003272492347489368,-0.001090830782496456,17.0625,2.5625,-32.5625
1769121470.6416316,58.71854858949334,1.256680538940076,13.937653819613534,-0.21606881693441637,2.3225846224704223,9.414017786468765,0.001090830782496456,0.003272492347489368,-0.001090830782496456,17.0625,2.5625,-32.5625
1769121470.6563263,58.71854858949334,1.256680538940076,13.937653819613534,-0.21403872987672692,2.325065149089261,9.405983568598709,-0.001090830782496456,-0.002181661564992912,0.001090830782496456,16.6875,2.875,-31.75
1769121470.6702127,58.71854858949334,1.256680538940076,13.937653819613534,-0.21403872987672692,2.325065149089261,9.405983568598709,-0.001090830782496456,-0.002181661564992912,0.001090830782496456,16.6875,2.875,-31.75
1769121470.6814866,58.71854858949334,1.256680538940076,13.937653819613534,-0.21268772961739293,2.3267159118447998,9.400636886354281,0.0,-0.001090830782496456,-0.001090830782496456,16.6875,2.875,-31.75
1769121470.694623,58.71854858949334,1.256680538940076,13.937653819613534,-0.2117886540364679,2.324469364311063,9.397078729046967,0.0,0.0,0.001090830782496456,16.6875,2.875,-31.75
1769121470.706239,58.71854858949334,1.256680538940076,13.937653819613534,-0.2117886540364679,2.324469364311063,9.397078729046967,0.0,0.0,0.001090830782496456,16.6875,2.875,-31.75
1769121470.7176514,58.71854858949334,1.256680538940076,13.937653819613534,-0.20784521757337523,2.322974312022942,9.391365703398852,0.0,0.002181661564992912,0.001090830782496456,17.5,2.875,-31.75
1769121470.7421896,58.71854858949334,1.256680538940076,13.937653819613534,-0.20784521757337523,2.322974312022942,9.391365703398852,0.0,0.002181661564992912,0.001090830782496456,17.5,2.875,-31.75
1769121470.7539358,58.71854858949334,1.256680538940076,13.937653819613534,-0.2052209046582587,2.3219793714260257,9.384218636941391,0.0,-0.001090830782496456,0.001090830782496456,17.5,2.875,-31.75
1769121470.7654347,58.71854858949334,1.256680538940076,13.937653819613534,-0.20347445372874476,2.3213172495729926,9.379462344051914,-0.001090830782496456,-0.001090830782496456,0.0,17.5,2.875,-31.75
1769121470.7804558,58.71854858949334,1.256680538940076,13.937653819613534,-0.20347445372874476,2.3213172495729926,9.379462344051914,-0.001090830782496456,-0.001090830782496456,0.0,17.5,2.875,-31.75
1769121470.7934375,58.71854858949334,1.256680538940076,13.937653819613534,-0.2056573218516078,2.320876614876185,9.386332419387198,-0.001090830782496456,-0.001090830782496456,0.0,17.0625,3.25,-32.0625
1769121470.8056452,58.71854858949334,1.256680538940076,13.937653819613534,-0.2056573218516078,2.320876614876185,9.386332419387198,-0.001090830782496456,-0.001090830782496456,0.0,17.0625,3.25,-32.0625
1769121470.8169553,58.71854858949334,1.256680538940076,13.937653819613534,-0.20710999620313847,2.3172382657003516,9.394249489486379,0.0,0.001090830782496456,0.001090830782496456,17.0625,3.25,-32.0625
1769121470.828524,58.71854858949334,1.256680538940076,13.937653819613534,-0.20807673475664637,2.3181620966741776,9.399518211197917,-0.001090830782496456,0.0,-0.002181661564992912,17.0625,3.25,-32.0625
1769121470.8425546,58.71854858949334,1.256680538940076,13.937653819613534,-0.20807673475664637,2.3181620966741776,9.399518211197917,-0.001090830782496456,0.0,-0.002181661564992912,17.0625,3.25,-32.0625
1769121470.8543057,58.71854858949334,1.256680538940076,13.937653819613534,-0.20872008846482865,2.3154317841600713,9.396334263226828,0.0,0.001090830782496456,-0.003272492347489368,17.5,2.875,-33.25
1769121470.8675666,58.71854858949334,1.256680538940076,13.937653819613534,-0.20872008846482865,2.3154317841600713,9.396334263226828,0.0,0.001090830782496456,-0.003272492347489368,17.5,2.875,-33.25
1769121470.878906,58.71854858949334,1.256680538940076,13.937653819613534,-0.20914823317089212,2.3203050150961615,9.390870269711778,-0.002181661564992912,0.0,-0.003272492347489368,17.5,2.875,-33.25
1769121470.8907716,58.71854858949334,1.256680538940076,13.937653819613534,-0.20943315869008763,2.3168578724319344,9.38723404306432,-0.002181661564992912,-0.002181661564992912,-0.001090830782496456,17.5,2.875,-33.25
1769121470.9045782,58.71854858949334,1.256680538940076,13.937653819613534,-0.20943315869008763,2.3168578724319344,9.38723404306432,-0.002181661564992912,-0.002181661564992912,-0.001090830782496456,17.5,2.875,-33.25
1769121470.9169042,58.71854858949334,1.256680538940076,13.937653819613534,-0.21296788514760503,2.317908949203317,9.38481417484975,0.0,0.0,0.001090830782496456,16.6875,2.5625,-31.0
1769121470.928878,58.71854858949334,1.256680538940076,13.937653819613534,-0.21296788514760503,2.317908949203317,9.38481417484975,0.0,0.0,0.001090830782496456,16.6875,2.5625,-31.0
1769121470.9420412,58.71854858949334,1.256680538940076,13.937653819613534,-0.21532020611960112,2.3186084290533753,9.379858667877333,0.0,-0.002181661564992912,-0.001090830782496456,16.6875,2.5625,-31.0
1769121470.9533172,58.71854858949334,1.256680538940076,13.937653819613534,-0.21532020611960112,2.3186084290533753,9.379858667877333,0.0,-0.002181661564992912,-0.001090830782496456,16.6875,2.5625,-31.0
1769121470.9686646,58.71854858949334,1.256680538940076,13.937653819613534,-0.2168856494493175,2.3224190367872066,9.376560833343829,0.0,-0.001090830782496456,0.0,16.6875,2.5625,-31.0
1769121470.980914,58.71854858949334,1.256680538940076,13.937653819613534,-0.2168856494493175,2.3224190367872066,9.376560833343829,0.0,-0.001090830782496456,0.0,16.6875,2.5625,-31.0
1769121470.9948626,58.71854858949334,1.256680538940076,13.937653819613534,-0.21792743449809596,2.324954953666794,9.381056384715647,-0.001090830782496456,-0.001090830782496456,-0.002181661564992912,17.0625,3.6875,-32.0625
1769121471.0078247,58.71854858949334,1.256680538940076,13.937653819613534,-0.2186207308105565,2.3266425780221116,9.384048123934992,0.0,-0.001090830782496456,-0.001090830782496456,17.0625,3.6875,-32.0625
1769121471.020217,58.71854858949334,1.256680538940076,13.937653819613534,-0.21908211176187173,2.3277656731785763,9.38269398125823,0.0,-0.001090830782496456,-0.001090830782496456,17.0625,3.6875,-32.0625
1769121471.0323265,58.71854858949334,1.256680538940076,13.937653819613534,-0.21908211176187173,2.3277656731785763,9.38269398125823,0.0,-0.001090830782496456,-0.001090830782496456,17.0625,3.6875,-32.0625
1769121471.0451066,58.71854858949334,1.256680538940076,13.937653819613534,-0.2160440439236897,2.32182285704477,9.38179281443361,-0.001090830782496456,0.0,0.001090830782496456,17.5,2.875,-31.75
1769121471.0573707,58.71854858949334,1.256680538940076,13.937653819613534,-0.2160440439236897,2.32182285704477,9.38179281443361,-0.001090830782496456,0.0,0.001090830782496456,17.5,2.875,-31.75
1769121471.0686474,58.71854858949334,1.256680538940076,13.937653819613534,-0.214022243714821,2.3178679792933274,9.381193097978517,0.0,0.001090830782496456,-0.001090830782496456,17.5,2.875,-31.75
1769121471.0799165,58.71854858949334,1.256680538940076,13.937653819613534,-0.21267675826080704,2.315236052328622,9.387484216791565,-0.001090830782496456,-0.001090830782496456,0.0,17.5,2.875,-31.75
1769121471.0912454,58.71854858949334,1.256680538940076,13.937653819613534,-0.21267675826080704,2.315236052328622,9.387484216791565,-0.001090830782496456,-0.001090830782496456,0.0,17.5,2.875,-31.75
1769121471.1044352,58.71854858949334,1.256680538940076,13.937653819613534,-0.2117813527212181,2.313484534334161,9.398361109499884,0.0,-0.002181661564992912,0.001090830782496456,18.5,2.875,-33.0
1769121471.1160586,58.71854858949334,1.256680538940076,13.937653819613534,-0.2117813527212181,2.313484534334161,9.398361109499884,0.0,-0.002181661564992912,0.001090830782496456,18.5,2.875,-33.0
1769121471.1297424,58.71854858949334,1.256680538940076,13.937653819613534,-0.2111854703369569,2.312318918674585,9.4022544483871,-0.001090830782496456,-0.001090830782496456,0.001090830782496456,18.5,2.875,-33.0
1769121471.1432958,58.71854858949334,1.256680538940076,13.937653819613534,-0.21078891726667345,2.3115432144739176,9.404845421925096,0.0,-0.001090830782496456,-0.001090830782496456,18.5,2.875,-33.0
1769121471.1550567,58.71854858949334,1.256680538940076,13.937653819613534,-0.21078891726667345,2.3115432144739176,9.404845421925096,0.0,-0.001090830782496456,-0.001090830782496456,18.5,2.875,-33.0
1769121471.1675503,58.71854858949334,1.256680538940076,13.937653819613534,-0.21387012733550725,2.3143721037008764,9.406569685871562,0.0,-0.003272492347489368,0.0,18.5,2.5625,-31.75
1769121471.1792037,58.71854858949334,1.256680538940076,13.937653819613534,-0.21387012733550725,2.3143721037008764,9.406569685871562,0.0,-0.003272492347489368,0.0,18.5,2.5625,-31.75
1769121471.1908674,58.71854858949334,1.256680538940076,13.937653819613534,-0.21592063821694443,2.316254697880654,9.401026940852006,0.001090830782496456,-0.001090830782496456,0.0,18.5,2.5625,-31.75
1769121471.202688,58.71854858949334,1.256680538940076,13.937653819613534,-0.21592063821694443,2.316254697880654,9.401026940852006,0.001090830782496456,-0.001090830782496456,0.0,18.5,2.5625,-31.75
1769121471.216678,58.71854858949334,1.256680538940076,13.937653819613534,-0.21728523030283348,2.3208526549846606,9.39733830595801,-0.001090830782496456,-0.002181661564992912,0.0,18.5,2.5625,-31.75
1769121471.2285924,58.71854858949334,1.256680538940076,13.937653819613534,-0.21728523030283348,2.3208526549846606,9.39733830595801,-0.001090830782496456,-0.002181661564992912,0.0,18.5,2.5625,-31.75
1769121471.2486398,58.71854858949334,1.256680538940076,13.937653819613534,-0.21819335109250024,2.323912544074831,9.394883560640807,0.0,-0.001090830782496456,-0.001090830782496456,17.75,2.875,-31.75
1769121471.2611866,58.71854858949334,1.256680538940076,13.937653819613534,-0.21879769533364957,2.3226037543758187,9.39994017846815,0.0,0.002181661564992912,-0.001090830782496456,17.75,2.875,-31.75
1769121471.2727108,58.71854858949334,1.256680538940076,13.937653819613534,-0.21879769533364957,2.3226037543758187,9.39994017846815,0.0,0.002181661564992912,-0.001090830782496456,17.75,2.875,-31.75
1769121471.288643,58.71854858949334,1.256680538940076,13.937653819613534,-0.21919987967516694,2.3217327694512653,9.403305301146123,0.0,0.001090830782496456,0.0,17.75,2.875,-31.75
1769121471.300473,58.71854858949334,1.256680538940076,13.937653819613534,-0.21919987967516694,2.3217327694512653,9.403305301146123,0.0,0.001090830782496456,0.0,17.75,2.875,-31.75
1769121471.3195755,58.71854858949334,1.256680538940076,13.937653819613534,-0.21612241715443387,2.321153138713514,9.398854529282792,0.0,-0.002181661564992912,0.001090830782496456,17.0625,2.875,-32.5625
1769121471.333864,58.71854858949334,1.256680538940076,13.937653819613534,-0.2140744002243949,2.3207674009324397,9.395892590326126,0.0,0.0,-0.001090830782496456,17.0625,2.875,-32.5625
1769121471.345612,58.71854858949334,1.256680538940076,13.937653819613534,-0.2140744002243949,2.3207674009324397,9.395892590326126,0.0,0.0,-0.001090830782496456,17.0625,2.875,-32.5625
1769121471.3646178,58.71854858949334,1.256680538940076,13.937653819613534,-0.2127114678353021,2.3205106967481086,9.393921453037489,-0.001090830782496456,-0.001090830782496456,-0.001090830782496456,17.0625,2.875,-32.5625
1769121471.3912287,58.71854858949334,1.256680538940076,13.937653819613534,-0.2118044515553132,2.32033986298101,9.392609683190948,0.001090830782496456,0.0,0.001090830782496456,17.5,3.25,-31.375
1769121471.4047878,58.71854858949334,1.256680538940076,13.937653819613534,-0.2112008423530163,2.3202261750173436,9.391736715011504,-0.001090830782496456,-0.002181661564992912,0.0,17.5,3.25,-31.375
1769121471.4221046,58.71854858949334,1.256680538940076,13.937653819613534,-0.2112008423530163,2.3202261750173436,9.391736715011504,-0.001090830782496456,-0.002181661564992912,0.0,17.5,3.25,-31.375
1769121471.437091,58.71854858949334,1.256680538940076,13.937653819613534,-0.2141442588789637,2.3201505169475016,9.38446554102514,-0.001090830782496456,-0.001090830782496456,-0.001090830782496456,17.5,3.25,-31.375
1769121471.4524896,58.71854858949334,1.256680538940076,13.937653819613534,-0.2141442588789637,2.3201505169475016,9.38446554102514,-0.001090830782496456,-0.001090830782496456,-0.001090830782496456,17.5,3.25,-31.375
1769121471.4694781,58.71854858949334,1.256680538940076,13.937653819613534,-0.2161030696968647,2.320100167347178,9.386316879376189,-0.001090830782496456,0.0,-0.001090830782496456,16.6875,2.5625,-32.0625
1769121471.4846027,58.71854858949334,1.256680538940076,13.937653819613534,-0.21740663641482727,2.320066660250604,9.384203812660688,0.0,0.001090830782496456,0.0,16.6875,2.5625,-32.0625
1769121471.4968972,58.71854858949334,1.256680538940076,13.937653819613534,-0.21740663641482727,2.320066660250604,9.384203812660688,0.0,0.001090830782496456,0.0,16.6875,2.5625,-32.0625
1769121471.5123067,58.71854858949334,1.256680538940076,13.937653819613534,-0.2149290337965176,2.3200443616521333,9.389487813780663,0.0,0.002181661564992912,-0.002181661564992912,16.6875,2.5625,-32.0625
1769121471.5260522,58.71854858949334,1.256680538940076,13.937653819613534,-0.2132802169306672,2.3200295221839426,9.386314034085208,-0.001090830782496456,0.001090830782496456,0.0,17.5,2.875,-32.5625
1769121471.541969,58.71854858949334,1.256680538940076,13.937653819613534,-0.2132802169306672,2.3200295221839426,9.386314034085208,-0.001090830782496456,0.001090830782496456,0.0,17.5,2.875,-32.5625
1769121471.5565486,58.71854858949334,1.256680538940076,13.937653819613534,-0.21218294772493498,2.3200196466836296,9.387547030858643,-0.001090830782496456,0.001090830782496456,0.001090830782496456,17.5,2.875,-32.5625
1769121471.570702,58.71854858949334,1.256680538940076,13.937653819613534,-0.20810761561850097,2.3200130746484877,9.388367576437888,0.0,0.0,0.0,17.5,2.875,-32.5625
1769121471.584398,58.71854858949334,1.256680538940076,13.937653819613534,-0.20810761561850097,2.3200130746484877,9.388367576437888,0.0,0.0,0.0,17.5,2.875,-32.5625
1769121471.5968292,58.71854858949334,1.256680538940076,13.937653819613534,-0.20539552762611166,2.320008701032515,9.388913640354781,-0.001090830782496456,0.002181661564992912,0.0,16.25,3.25,-31.75
1769121471.6108263,58.71854858949334,1.256680538940076,13.937653819613534,-0.20693577507050392,2.320005790439942,9.389277039791539,-0.001090830782496456,0.0,-0.001090830782496456,16.25,3.25,-31.75
1769121471.6227195,58.71854858949334,1.256680538940076,13.937653819613534,-0.20693577507050392,2.320005790439942,9.389277039791539,-0.001090830782496456,0.0,-0.001090830782496456,16.25,3.25,-31.75
1769121471.6348116,58.71854858949334,1.256680538940076,13.937653819613534,-0.20796079253905564,2.3166587417657785,9.389518878057263,-0.001090830782496456,0.002181661564992912,0.0,16.25,3.25,-31.75
1769121471.6470017,58.71854858949334,1.256680538940076,13.937653819613534,-0.20864293021418143,2.3177764299694257,9.389679818721593,0.0,0.001090830782496456,-0.001090830782496456,17.5,2.1875,-31.75
1769121471.661023,58.71854858949334,1.256680538940076,13.937653819613534,-0.20864293021418143,2.3177764299694257,9.389679818721593,0.0,0.001090830782496456,-0.001090830782496456,17.5,2.1875,-31.75
1769121471.6731732,58.71854858949334,1.256680538940076,13.937653819613534,-0.20909688521700054,2.3185202389835573,9.38978692293588,0.0,0.0,0.001090830782496456,17.5,2.1875,-31.75
1769121471.6856942,58.71854858949334,1.256680538940076,13.937653819613534,-0.209398987200367,2.3223603472808905,9.389858199594055,0.0,0.0,-0.001090830782496456,17.5,2.1875,-31.75
1769121471.6992307,58.71854858949334,1.256680538940076,13.937653819613534,-0.209398987200367,2.3223603472808905,9.389858199594055,0.0,0.0,-0.001090830782496456,17.5,2.1875,-31.75
1769121471.7110736,58.71854858949334,1.256680538940076,13.937653819613534,-0.20960003269559713,2.3249158964559453,9.389905633413859,-0.001090830782496456,-0.002181661564992912,0.002181661564992912,17.75,2.5625,-31.375
1769121471.723007,58.71854858949334,1.256680538940076,13.937653819613534,-0.20960003269559713,2.3249158964559453,9.389905633413859,-0.001090830782496456,-0.002181661564992912,0.002181661564992912,17.75,2.5625,-31.375
1769121471.7349174,58.71854858949334,1.256680538940076,13.937653819613534,-0.20973382622684741,2.32327147417727,9.393282311798387,-0.001090830782496456,0.003272492347489368,-0.001090830782496456,17.75,2.5625,-31.375
1769121471.7465997,58.71854858949334,1.256680538940076,13.937653819613534,-0.20982286432732283,2.322177129520212,9.395529453543322,0.0,0.001090830782496456,0.0,17.75,2.5625,-31.375
1769121471.7588704,58.71854858949334,1.256680538940076,13.937653819613534,-0.20982286432732283,2.322177129520212,9.395529453543322,0.0,0.001090830782496456,0.0,17.75,2.5625,-31.375
1769121471.7729762,58.71854858949334,1.256680538940076,13.937653819613534,-0.21322722989588785,2.3214488553755706,9.390334677857718,-0.001090830782496456,-0.001090830782496456,-0.001090830782496456,17.75,2.5625,-31.375
1769121471.7890847,58.71854858949334,1.256680538940076,13.937653819613534,-0.21549279715251268,2.320964197067667,9.386877612668396,-0.001090830782496456,-0.002181661564992912,0.001090830782496456,17.75,3.6875,-33.25
1769121471.8028286,58.71854858949334,1.256680538940076,13.937653819613534,-0.21549279715251268,2.320964197067667,9.386877612668396,-0.001090830782496456,-0.002181661564992912,0.001090830782496456,17.75,3.6875,-33.25
1769121471.81686,58.71854858949334,1.256680538940076,13.937653819613534,-0.21031028343911323,2.3206416623777453,9.38792208611017,0.0,0.001090830782496456,0.001090830782496456,17.75,3.6875,-33.25
1769121471.8336265,58.71854858949334,1.256680538940076,13.937653819613534,-0.20686137845531735,2.313736795729912,9.388617171518137,0.001090830782496456,0.0,-0.001090830782496456,17.75,3.6875,-33.25
1769121471.8470335,58.71854858949334,1.256680538940076,13.937653819613534,-0.20686137845531735,2.313736795729912,9.388617171518137,0.001090830782496456,0.0,-0.001090830782496456,17.75,3.6875,-33.25
1769121471.8625824,58.71854858949334,1.256680538940076,13.937653819613534,-0.20791128242271362,2.309141684108194,9.389079743092527,0.001090830782496456,-0.001090830782496456,0.0,18.5,3.25,-31.375
1769121471.875767,58.71854858949334,1.256680538940076,13.937653819613534,-0.20791128242271362,2.309141684108194,9.389079743092527,0.001090830782496456,-0.001090830782496456,0.0,18.5,3.25,-31.375
1769121471.8990824,58.71854858949334,1.256680538940076,13.937653819613534,-0.20860998178482007,2.30942880036202,9.38938757930802,0.0,0.002181661564992912,0.0,18.5,3.25,-31.375
1769121471.9208517,58.71854858949334,1.256680538940076,13.937653819613534,-0.20907495840531862,2.316310096436281,9.389592440870674,0.001090830782496456,0.0,0.0,16.6875,2.875,-31.0
1769121471.935769,58.71854858949334,1.256680538940076,13.937653819613534,-0.20907495840531862,2.316310096436281,9.389592440870674,0.001090830782496456,0.0,0.0,16.6875,2.875,-31.0
1769121471.951326,58.71854858949334,1.256680538940076,13.937653819613534,-0.20938439515213123,2.3175444103972684,9.389728773952168,-0.001090830782496456,0.0,-0.001090830782496456,16.6875,2.875,-31.0
1769121471.965954,58.71854858949334,1.256680538940076,13.937653819613534,-0.20959032185050006,2.321710944257435,9.389819502094962,0.001090830782496456,0.002181661564992912,-0.002181661564992912,16.6875,2.875,-31.0
1769121471.9799032,58.71854858949334,1.256680538940076,13.937653819613534,-0.20959032185050006,2.321710944257435,9.389819502094962,0.001090830782496456,0.002181661564992912,-0.002181661564992912,16.6875,2.875,-31.0
1769121471.994972,58.71854858949334,1.256680538940076,13.937653819613534,-0.21641758718255136,2.324483725998143,9.38987988066049,0.001090830782496456,0.004363323129985824,-0.001090830782496456,17.0625,3.25,-32.0625
1769121472.0071766,58.71854858949334,1.256680538940076,13.937653819613534,-0.2176159442881612,2.326328981272582,9.389920061921378,0.0,0.001090830782496456,-0.001090830782496456,17.0625,3.25,-32.0625
1769121472.0233648,58.71854858949334,1.256680538940076,13.937653819613534,-0.2176159442881612,2.326328981272582,9.389920061921378,0.0,0.001090830782496456,-0.001090830782496456,17.0625,3.25,-32.0625
1769121472.0386233,58.71854858949334,1.256680538940076,13.937653819613534,-0.21841343755541856,2.320866754630231,9.389946802101644,-0.001090830782496456,-0.002181661564992912,0.0,17.0625,3.25,-32.0625
1769121472.0555284,58.71854858949334,1.256680538940076,13.937653819613534,-0.21894416041619483,2.313886592109496,9.389964597392904,0.0,-0.001090830782496456,0.002181661564992912,16.6875,2.875,-32.1875
1769121472.0683956,58.71854858949334,1.256680538940076,13.937653819613534,-0.21894416041619483,2.313886592109496,9.389964597392904,0.0,-0.001090830782496456,0.002181661564992912,16.6875,2.875,-32.1875
1769121472.0814505,58.71854858949334,1.256680538940076,13.937653819613534,-0.21929735055147861,2.309241371925472,9.39666666337509,-0.001090830782496456,0.001090830782496456,-0.001090830782496456,16.6875,2.875,-32.1875
1769121472.101398,58.71854858949334,1.256680538940076,13.937653819613534,-0.21953239464111765,2.316185364905471,9.401126813419252,0.002181661564992912,0.0,-0.001090830782496456,16.6875,2.875,-32.1875
1769121472.116381,58.71854858949334,1.256680538940076,13.937653819613534,-0.21953239464111765,2.316185364905471,9.401126813419252,0.002181661564992912,0.0,-0.001090830782496456,16.6875,2.875,-32.1875
1769121472.134159,58.71854858949334,1.256680538940076,13.937653819613534,-0.2196888138571579,2.3208065146641763,9.390714546621224,0.001090830782496456,0.001090830782496456,0.001090830782496456,17.75,2.1875,-32.1875
1769121472.1477582,58.71854858949334,1.256680538940076,13.937653819613534,-0.2164477973907962,2.3138465030850117,9.383785299379777,0.001090830782496456,0.0,0.0,17.75,2.1875,-32.1875
1769121472.164152,58.71854858949334,1.256680538940076,13.937653819613534,-0.217636048844278,2.309214693127501,9.382519074452677,0.001090830782496456,0.001090830782496456,0.0,17.75,2.1875,-32.1875
1769121472.181475,58.71854858949334,1.256680538940076,13.937653819613534,-0.217636048844278,2.309214693127501,9.382519074452677,0.001090830782496456,0.001090830782496456,0.0,17.75,2.1875,-32.1875
1769121472.1967754,58.71854858949334,1.256680538940076,13.937653819613534,-0.21508170520561232,2.3094773870488043,9.381676415908352,0.0,0.0,0.0,16.6875,3.6875,-31.0
1769121472.2096248,58.71854858949334,1.256680538940076,13.937653819613534,-0.21508170520561232,2.3094773870488043,9.381676415908352,0.0,0.0,0.0,16.6875,3.6875,-31.0
1769121472.223372,58.71854858949334,1.256680538940076,13.937653819613534,-0.21003670634064897,2.3096522069189485,9.381115636060215,-0.001090830782496456,-0.001090830782496456,-0.001090830782496456,16.6875,3.6875,-31.0
1769121472.2411706,58.71854858949334,1.256680538940076,13.937653819613534,-0.20667931595234582,2.3097685475896634,9.380742443335603,0.001090830782496456,0.001090830782496456,0.0,16.6875,3.6875,-31.0
1769121472.2608807,58.71854858949334,1.256680538940076,13.937653819613534,-0.21113523356807687,2.313191082713733,9.393874534575486,-0.001090830782496456,0.0,-0.001090830782496456,17.0625,2.1875,-32.5625
1769121472.2797337,58.71854858949334,1.256680538940076,13.937653819613534,-0.21410059696548467,2.315468741606579,9.38923334777128,0.0,0.001090830782496456,-0.001090830782496456,17.0625,2.1875,-32.5625
1769121472.2995744,58.71854858949334,1.256680538940076,13.937653819613534,-0.21410059696548467,2.315468741606579,9.38923334777128,0.0,0.001090830782496456,-0.001090830782496456,17.0625,2.1875,-32.5625
1769121472.3160782,58.71854858949334,1.256680538940076,13.937653819613534,-0.21272890147386056,2.316984498156651,9.389489801505853,0.0,0.0,-0.001090830782496456,17.0625,2.1875,-32.5625
1769121472.3329296,58.71854858949334,1.256680538940076,13.937653819613534,-0.21272890147386056,2.316984498156651,9.389489801505853,0.0,0.0,-0.001090830782496456,17.0625,2.1875,-32.5625
1769121472.347303,58.71854858949334,1.256680538940076,13.937653819613534,-0.21181605344702734,2.317993217208614,9.386315356894116,-0.001090830782496456,0.0,0.001090830782496456,17.5,3.25,-33.0
1769121472.363373,58.71854858949334,1.256680538940076,13.937653819613534,-0.21181605344702734,2.317993217208614,9.386315356894116,-0.001090830782496456,0.0,0.001090830782496456,17.5,3.25,-33.0
1769121472.3886042,58.71854858949334,1.256680538940076,13.937653819613534,-0.20786345157503108,2.318664508469565,9.387547911173195,-0.001090830782496456,0.002181661564992912,-0.002181661564992912,17.5,3.25,-33.0
1769121472.413374,58.71854858949334,1.256680538940076,13.937653819613534,-0.2085781508899929,2.3157661335975943,9.388368162277388,0.001090830782496456,0.0,-0.001090830782496456,17.5,3.25,-33.0
1769121472.4277642,58.71854858949334,1.256680538940076,13.937653819613534,-0.20905377530038555,2.3138372974972663,9.392259141931742,0.0,0.0,0.0,17.0625,2.1875,-32.5625
1769121472.4464808,58.71854858949334,1.256680538940076,13.937653819613534,-0.20937029803242904,2.312553678619009,9.394848545426624,0.0,0.0,-0.001090830782496456,17.0625,2.1875,-32.5625
1769121472.460397,58.71854858949334,1.256680538940076,13.937653819613534,-0.20937029803242904,2.312553678619009,9.394848545426624,0.0,0.0,-0.001090830782496456,17.0625,2.1875,-32.5625
1769121472.4737856,58.71854858949334,1.256680538940076,13.937653819613534,-0.2129260520821328,2.31838966800913,9.403261987941576,0.001090830782496456,0.0,0.0,17.0625,2.1875,-32.5625
1769121472.4860153,58.71854858949334,1.256680538940076,13.937653819613534,-0.21194725497451594,2.3155832303413435,9.408861039950965,-0.001090830782496456,0.0,0.0,16.6875,2.875,-32.0625
1769121472.5007694,58.71854858949334,1.256680538940076,13.937653819613534,-0.21194725497451594,2.3155832303413435,9.408861039950965,-0.001090830782496456,0.0,0.0,16.6875,2.875,-32.0625
1769121472.51457,58.71854858949334,1.256680538940076,13.937653819613534,-0.21129587643327702,2.3204058008380333,9.409242034810385,0.001090830782496456,-0.001090830782496456,0.001090830782496456,16.6875,2.875,-32.0625
1769121472.528399,58.71854858949334,1.256680538940076,13.937653819613534,-0.21129587643327702,2.3204058008380333,9.409242034810385,0.001090830782496456,-0.001090830782496456,0.001090830782496456,16.6875,2.875,-32.0625
1769121472.543038,58.71854858949334,1.256680538940076,13.937653819613534,-0.21086239129045758,2.316924944217299,9.39277002409674,-0.001090830782496456,0.002181661564992912,-0.002181661564992912,16.6875,2.875,-32.0625
1769121472.5551872,58.71854858949334,1.256680538940076,13.937653819613534,-0.21057391177025758,2.3179535847272366,9.398533643507822,0.0,0.002181661564992912,-0.001090830782496456,17.75,2.875,-33.0
1769121472.5679066,58.71854858949334,1.256680538940076,13.937653819613534,-0.21057391177025758,2.3179535847272366,9.398533643507822,0.0,0.002181661564992912,-0.001090830782496456,17.75,2.875,-33.0
1769121472.5820744,48.09883018998778,90.0,-152.63920816092872,-0.21038193187209187,2.3186381334959325,9.388988821012774,0.001090830782496456,0.001090830782496456,-0.001090830782496456,17.75,2.875,-33.0
1769121472.5943754,58.71854858949334,1.256680538940076,13.937653819613534,-0.21025417139441857,2.319093693054589,9.385981959972291,-0.001090830782496456,0.002181661564992912,-0.002181661564992912,17.75,2.875,-33.0
1769121472.6061158,58.71854858949334,1.256680538940076,13.937653819613534,-0.21025417139441857,2.319093693054589,9.385981959972291,-0.001090830782496456,0.002181661564992912,-0.002181661564992912,17.75,2.875,-33.0
1769121472.6181536,58.71854858949334,1.256680538940076,13.937653819613534,-0.21016914822370505,2.319396862851941,9.383980927538689,-0.001090830782496456,0.001090830782496456,-0.001090830782496456,17.0625,2.1875,-32.1875
1769121472.6298397,58.71854858949334,1.256680538940076,13.937653819613534,-0.21011256625336625,2.31959861896545,9.382649262807123,0.0,-0.001090830782496456,0.0,17.0625,2.1875,-32.1875
1769121472.6432073,58.71854858949334,1.256680538940076,13.937653819613534,-0.21011256625336625,2.31959861896545,9.382649262807123,0.0,-0.001090830782496456,0.0,17.0625,2.1875,-32.1875
1769121472.655465,58.71854858949334,1.256680538940076,13.937653819613534,-0.2100749115841678,2.3230779971125464,9.381763054803935,-0.001090830782496456,0.0,0.0,17.0625,2.1875,-32.1875
1769121472.667213,58.71854858949334,1.256680538940076,13.937653819613534,-0.21004985282244645,2.3253934844022384,9.381173293277406,-0.001090830782496456,0.002181661564992912,0.0,17.0625,2.1875,-32.1875
1769121472.6791263,58.71854858949334,1.256680538940076,13.937653819613534,-0.21004985282244645,2.3253934844022384,9.381173293277406,-0.001090830782496456,0.002181661564992912,0.0,17.0625,2.1875,-32.1875
1769121472.6912153,58.71854858949334,1.256680538940076,13.937653819613534,-0.2066880647891262,2.3269344153278406,9.380780813569569,-0.001090830782496456,0.001090830782496456,-0.001090830782496456,17.75,2.5625,-33.375
1769121472.7030933,58.71854858949334,1.256680538940076,13.937653819613534,-0.20779594411390392,2.3279598876455028,9.387209846122929,-0.002181661564992912,-0.001090830782496456,0.0,17.75,2.5625,-33.375
1769121472.7148032,58.71854858949334,1.256680538940076,13.937653819613534,-0.20779594411390392,2.3279598876455028,9.387209846122929,-0.002181661564992912,-0.001090830782496456,0.0,17.75,2.5625,-33.375
1769121472.7267969,58.71854858949334,1.256680538940076,13.937653819613534,-0.20518811372140117,2.3286423280176303,9.38479807205555,-0.001090830782496456,0.0,0.0,17.75,2.5625,-33.375
1769121472.7389398,58.71854858949334,1.256680538940076,13.937653819613534,-0.20518811372140117,2.3286423280176303,9.38479807205555,-0.001090830782496456,0.0,0.0,17.75,2.5625,-33.375
1769121472.7518282,58.71854858949334,1.256680538940076,13.937653819613534,-0.2067977434338842,2.329096484461923,9.389883286769631,0.0,-0.002181661564992912,0.001090830782496456,16.25,2.875,-31.0
1769121472.765133,58.71854858949334,1.256680538940076,13.937653819613534,-0.20786893402679965,2.3293987205023394,9.393267440356281,-0.001090830782496456,0.0,-0.002181661564992912,16.25,2.875,-31.0
1769121472.7776272,58.71854858949334,1.256680538940076,13.937653819613534,-0.20786893402679965,2.3293987205023394,9.393267440356281,-0.001090830782496456,0.0,-0.002181661564992912,16.25,2.875,-31.0
1769121472.7958097,58.71854858949334,1.256680538940076,13.937653819613534,-0.2085817994004019,2.329599855211039,9.395519556764723,-0.001090830782496456,0.002181661564992912,0.0,16.25,2.875,-31.0
1769121472.8093157,58.71854858949334,1.256680538940076,13.937653819613534,-0.20905620334330619,2.326388596405537,9.397018315076753,0.001090830782496456,-0.002181661564992912,0.002181661564992912,17.75,2.875,-32.5625
1769121472.829915,58.71854858949334,1.256680538940076,13.937653819613534,-0.20905620334330619,2.326388596405537,9.397018315076753,0.001090830782496456,-0.002181661564992912,0.002181661564992912,17.75,2.875,-32.5625
1769121472.8479595,58.71854858949334,1.256680538940076,13.937653819613534,-0.20905620334330619,2.326388596405537,9.397018315076753,0.0,0.0,0.001090830782496456,17.75,2.875,-32.5625
1769121472.862584,58.71854858949334,1.256680538940076,13.937653819613534,-0.20602680216055033,2.324251539542587,9.387980386869225,0.0,0.003272492347489368,0.0,17.75,2.875,-32.5625
1769121472.876263,58.71854858949334,1.256680538940076,13.937653819613534,-0.20401076951405486,2.322829352072783,9.392001081729346,0.0,-0.001090830782496456,0.0,17.0625,2.875,-31.375
1769121472.89278,58.71854858949334,1.256680538940076,13.937653819613534,-0.20401076951405486,2.322829352072783,9.392001081729346,0.0,-0.001090830782496456,0.0,17.0625,2.875,-31.375
1769121472.9068868,58.71854858949334,1.256680538940076,13.937653819613534,-0.20601423401569177,2.3218829021985035,9.387986585830014,-0.002181661564992912,0.0,0.0,17.0625,2.875,-31.375
1769121472.9205487,58.71854858949334,1.256680538940076,13.937653819613534,-0.20734751726136624,2.3212530503797084,9.388660095361184,-0.001090830782496456,0.001090830782496456,0.001090830782496456,17.0625,2.875,-31.375
1769121472.935537,58.71854858949334,1.256680538940076,13.937653819613534,-0.20734751726136624,2.3212530503797084,9.388660095361184,-0.001090830782496456,0.001090830782496456,0.001090830782496456,17.0625,2.875,-31.375
1769121472.9526198,58.71854858949334,1.256680538940076,13.937653819613534,-0.21157991407493226,2.320833891030206,9.385763196723264,0.0,-0.001090830782496456,0.0,16.6875,2.5625,-30.5625
1769121472.9667509,58.71854858949334,1.256680538940076,13.937653819613534,-0.21157991407493226,2.320833891030206,9.385763196723264,0.0,-0.001090830782496456,0.0,16.6875,2.5625,-30.5625
1769121472.985836,58.71854858949334,1.256680538940076,13.937653819613534,-0.21439652687539018,2.320554945165429,9.383835343040207,0.0,0.001090830782496456,0.001090830782496456,16.6875,2.5625,-30.5625
1769121473.0001564,58.71854858949334,1.256680538940076,13.937653819613534,-0.21627095123046836,2.31702419810113,9.382552377949668,0.0,0.001090830782496456,-0.001090830782496456,16.6875,2.5625,-30.5625
1769121473.012624,58.71854858949334,1.256680538940076,13.937653819613534,-0.21627095123046836,2.31702419810113,9.382552377949668,0.0,0.001090830782496456,-0.001090830782496456,16.6875,2.5625,-30.5625
1769121473.0342355,58.71854858949334,1.256680538940076,13.937653819613534,-0.2108281362854421,2.3180196370781876,9.385043690720893,0.0,0.001090830782496456,0.001090830782496456,17.5,2.875,-31.75
1769121473.0483007,58.71854858949334,1.256680538940076,13.937653819613534,-0.2072060037397539,2.315336978890318,9.390046743247677,0.001090830782496456,-0.001090830782496456,0.001090830782496456,17.5,2.875,-31.75
1769121473.0633004,58.71854858949334,1.256680538940076,13.937653819613534,-0.20814062669978947,2.3168968115408655,9.393376218816492,-0.002181661564992912,0.001090830782496456,0.0,17.5,2.875,-31.75
1769121473.0778582,58.71854858949334,1.256680538940076,13.937653819613534,-0.20814062669978947,2.3168968115408655,9.393376218816492,-0.002181661564992912,0.001090830782496456,0.0,17.5,2.875,-31.75
1769121473.095995,58.71854858949334,1.256680538940076,13.937653819613534,-0.20876260783927061,2.314589751038013,9.39224683590754,0.001090830782496456,0.002181661564992912,0.001090830782496456,17.0625,3.25,-31.75
1769121473.108992,58.71854858949334,1.256680538940076,13.937653819613534,-0.20876260783927061,2.314589751038013,9.39224683590754,0.001090830782496456,0.002181661564992912,0.001090830782496456,17.0625,3.25,-31.75
1769121473.1223192,58.71854858949334,1.256680538940076,13.937653819613534,-0.20583141763229135,2.319744651459558,9.384805020783029,-0.001090830782496456,0.001090830782496456,0.0,17.0625,3.25,-31.75
1769121473.13556,58.71854858949334,1.256680538940076,13.937653819613534,-0.2038807432930867,2.323175180106085,9.376507464240868,0.0,-0.002181661564992912,0.001090830782496456,17.0625,3.25,-31.75
1769121473.1488616,58.71854858949334,1.256680538940076,13.937653819613534,-0.2038807432930867,2.323175180106085,9.376507464240868,0.0,-0.002181661564992912,0.001090830782496456,17.0625,3.25,-31.75
1769121473.1724722,58.71854858949334,1.256680538940076,13.937653819613534,-0.20592770301812552,2.3254581585988334,9.374330644759159,-0.001090830782496456,-0.002181661564992912,0.0,17.0625,2.875,-32.5625
1769121473.1868997,58.71854858949334,1.256680538940076,13.937653819613534,-0.21063504355641988,2.3269774552832163,9.372881995710749,0.001090830782496456,-0.001090830782496456,0.001090830782496456,17.0625,2.875,-32.5625
1769121473.2042146,58.71854858949334,1.256680538940076,13.937653819613534,-0.21376772610021547,2.324643418547698,9.371917935951503,-0.001090830782496456,0.001090830782496456,-0.002181661564992912,17.0625,2.875,-32.5625
1769121473.2168148,58.71854858949334,1.256680538940076,13.937653819613534,-0.21376772610021547,2.324643418547698,9.371917935951503,-0.001090830782496456,0.001090830782496456,-0.002181661564992912,17.0625,2.875,-32.5625
1769121473.2339525,58.71854858949334,1.256680538940076,13.937653819613534,-0.2158524913387545,2.323090143173109,9.371276364950978,0.0,0.001090830782496456,0.0,17.0625,2.875,-31.0
1769121473.25324,58.71854858949334,1.256680538940076,13.937653819613534,-0.2172398793166486,2.318711344055224,9.384229853446223,0.0,-0.001090830782496456,-0.001090830782496456,17.0625,2.875,-31.0
1769121473.2675362,58.71854858949334,1.256680538940076,13.937653819613534,-0.2172398793166486,2.318711344055224,9.384229853446223,0.0,-0.001090830782496456,-0.001090830782496456,17.0625,2.875,-31.0
1769121473.2848568,58.71854858949334,1.256680538940076,13.937653819613534,-0.21481805881047852,2.3157973021566622,9.389505143632542,-0.001090830782496456,-0.002181661564992912,-0.002181661564992912,17.0625,2.875,-31.0
1769121473.3063524,58.71854858949334,1.256680538940076,13.937653819613534,-0.21481805881047852,2.3157973021566622,9.389505143632542,-0.001090830782496456,-0.002181661564992912,-0.002181661564992912,17.0625,2.875,-31.0
1769121473.3237891,58.71854858949334,1.256680538940076,13.937653819613534,-0.20986125260981064,2.3138580398251505,9.399706013737323,0.0,0.002181661564992912,0.001090830782496456,17.75,2.5625,-31.375
1769121473.3367898,58.71854858949334,1.256680538940076,13.937653819613534,-0.20986125260981064,2.3138580398251505,9.399706013737323,0.0,0.002181661564992912,0.001090830782496456,17.75,2.5625,-31.375
1769121473.3514085,58.71854858949334,1.256680538940076,13.937653819613534,-0.2065625534544195,2.3159125941138283,9.406494578840869,0.001090830782496456,0.00545415391248228,-0.001090830782496456,17.75,2.5625,-31.375
1769121473.3649318,58.71854858949334,1.256680538940076,13.937653819613534,-0.21105752943002948,2.313934765334749,9.411012293084038,-0.001090830782496456,0.001090830782496456,0.0,17.75,2.5625,-31.375
1769121473.3841238,58.71854858949334,1.256680538940076,13.937653819613534,-0.21105752943002948,2.313934765334749,9.411012293084038,-0.001090830782496456,0.001090830782496456,0.0,17.75,2.5625,-31.375
1769121473.3989036,58.71854858949334,1.256680538940076,13.937653819613534,-0.21404888572962621,2.312618542376067,9.403983446324734,-0.001090830782496456,0.001090830782496456,0.002181661564992912,17.5,2.1875,-31.75
1769121473.4249613,58.71854858949334,1.256680538940076,13.937653819613534,-0.21404888572962621,2.312618542376067,9.403983446324734,-0.001090830782496456,0.001090830782496456,0.002181661564992912,17.5,2.1875,-31.75
1769121473.4436896,58.71854858949334,1.256680538940076,13.937653819613534,-0.2126944882240491,2.3117426107002377,9.39596071561646,0.001090830782496456,0.0,0.0,17.5,2.1875,-31.75
1769121473.4566607,58.71854858949334,1.256680538940076,13.937653819613534,-0.20844804010637963,2.3111596879547713,9.393966789657199,-0.001090830782496456,0.001090830782496456,0.0,17.5,2.1875,-31.75
1769121473.4692566,58.71854858949334,1.256680538940076,13.937653819613534,-0.20844804010637963,2.3111596879547713,9.393966789657199,-0.001090830782496456,0.001090830782496456,0.0,17.5,2.1875,-31.75
1769121473.4826045,58.71854858949334,1.256680538940076,13.937653819613534,-0.2056220763200042,2.310771759379337,9.395984965912241,0.0,-0.001090830782496456,-0.002181661564992912,16.25,3.25,-32.0625
1769121473.4964764,58.71854858949334,1.256680538940076,13.937653819613534,-0.20374142898825529,2.3105135972458317,9.397328039665465,0.0,-0.001090830782496456,0.0,16.25,3.25,-32.0625
1769121473.5134082,58.71854858949334,1.256680538940076,13.937653819613534,-0.20248987919718361,2.310341793229844,9.404912063659758,0.0,0.001090830782496456,0.0,16.25,3.25,-32.0625
1769121473.528182,58.71854858949334,1.256680538940076,13.937653819613534,-0.20248987919718361,2.310341793229844,9.404912063659758,0.0,0.001090830782496456,0.0,16.25,3.25,-32.0625
1769121473.5401359,58.71854858949334,1.256680538940076,13.937653819613534,-0.20165698679195262,2.3135725712836996,9.393233588372265,-0.001090830782496456,0.001090830782496456,-0.001090830782496456,17.0625,3.25,-33.0
1769121473.5519397,58.71854858949334,1.256680538940076,13.937653819613534,-0.20165698679195262,2.3135725712836996,9.393233588372265,-0.001090830782496456,0.001090830782496456,-0.001090830782496456,17.0625,3.25,-33.0
1769121473.565534,58.71854858949334,1.256680538940076,13.937653819613534,-0.2011027062002892,2.3190677296957047,9.392151916940193,0.001090830782496456,0.0,0.0,17.0625,3.25,-33.0
1769121473.577828,58.71854858949334,1.256680538940076,13.937653819613534,-0.20073383865825709,2.319379584526633,9.391432076685211,-0.001090830782496456,0.0,0.0,17.0625,3.25,-33.0
1769121473.5898602,58.71854858949334,1.256680538940076,13.937653819613534,-0.20073383865825709,2.319379584526633,9.391432076685211,-0.001090830782496456,0.0,0.0,17.0625,3.25,-33.0
1769121473.6015894,58.71854858949334,1.256680538940076,13.937653819613534,-0.20048836142955515,2.319587120432969,9.397643254451301,0.0,0.003272492347489368,-0.002181661564992912,16.6875,2.5625,-31.75
1769121473.6134603,58.71854858949334,1.256680538940076,13.937653819613534,-0.20032499907601434,2.319725233260308,9.401776723871233,0.001090830782496456,0.0,-0.002181661564992912,16.6875,2.5625,-31.75
1769121473.628749,58.71854858949334,1.256680538940076,13.937653819613534,-0.20032499907601434,2.319725233260308,9.401776723871233,0.001090830782496456,0.0,-0.002181661564992912,16.6875,2.5625,-31.75
1769121473.641477,58.71854858949334,1.256680538940076,13.937653819613534,-0.20356139496192938,2.3198171458040804,9.401182389889,0.0,-0.001090830782496456,-0.001090830782496456,16.6875,2.5625,-31.75
1769121473.656919,58.71854858949334,1.256680538940076,13.937653819613534,-0.20571518027109492,2.3165332008679114,9.400786867262969,-0.001090830782496456,0.002181661564992912,0.0,16.6875,2.875,-31.75
1769121473.671487,58.71854858949334,1.256680538940076,13.937653819613534,-0.20571518027109492,2.3165332008679114,9.400786867262969,-0.001090830782496456,0.002181661564992912,0.0,16.6875,2.875,-31.75
1769121473.6848876,58.71854858949334,1.256680538940076,13.937653819613534,-0.21049361204230566,2.3143477721969594,9.400523651373623,0.0,-0.001090830782496456,0.0,16.6875,2.875,-31.75
1769121473.6977253,58.71854858949334,1.256680538940076,13.937653819613534,-0.213673605007466,2.316238505536598,9.390313149017619,-0.001090830782496456,-0.001090830782496456,-0.001090830782496456,16.6875,2.875,-31.75
1769121473.7104974,58.71854858949334,1.256680538940076,13.937653819613534,-0.213673605007466,2.316238505536598,9.390313149017619,-0.001090830782496456,-0.001090830782496456,-0.001090830782496456,16.6875,2.875,-31.75
1769121473.725525,58.71854858949334,1.256680538940076,13.937653819613534,-0.21578985480293122,2.3174967674532523,9.383518173758484,-0.001090830782496456,0.0,0.0,17.5,2.5625,-31.75
1769121473.7393513,58.71854858949334,1.256680538940076,13.937653819613534,-0.21578985480293122,2.3174967674532523,9.383518173758484,-0.001090830782496456,0.0,0.0,17.5,2.5625,-31.75
1769121473.7536376,58.71854858949334,1.256680538940076,13.937653819613534,-0.21719819540175414,2.31498901499576,9.392376640457654,-0.001090830782496456,0.002181661564992912,-0.001090830782496456,17.5,2.5625,-31.75
1769121473.7684705,58.71854858949334,1.256680538940076,13.937653819613534,-0.21144520692343674,2.313320133748729,9.398271851090394,0.0,0.002181661564992912,0.001090830782496456,17.5,2.5625,-31.75
1769121473.7829576,58.71854858949334,1.256680538940076,13.937653819613534,-0.21144520692343674,2.313320133748729,9.398271851090394,0.0,0.002181661564992912,0.001090830782496456,17.5,2.5625,-31.75
1769121473.801906,58.71854858949334,1.256680538940076,13.937653819613534,-0.20761665735620863,2.312209511921455,9.398849936205346,-0.003272492347489368,-0.001090830782496456,0.001090830782496456,17.5,2.1875,-31.375
1769121473.816603,58.71854858949334,1.256680538940076,13.937653819613534,-0.20841391209423862,2.3148155172091824,9.395889533684393,0.0,-0.001090830782496456,0.001090830782496456,17.5,2.1875,-31.375
1769121473.8345377,58.71854858949334,1.256680538940076,13.937653819613534,-0.20841391209423862,2.3148155172091824,9.395889533684393,0.0,-0.001090830782496456,0.001090830782496456,17.5,2.1875,-31.375
1769121473.8492773,58.71854858949334,1.256680538940076,13.937653819613534,-0.20894447621647863,2.3165497846171785,9.387229195461924,0.0,0.0,0.0,17.5,2.1875,-31.375
1769121473.8631008,58.71854858949334,1.256680538940076,13.937653819613534,-0.20894447621647863,2.3165497846171785,9.387229195461924,0.0,0.0,0.0,17.5,2.1875,-31.375
1769121473.8777134,58.71854858949334,1.256680538940076,13.937653819613534,-0.20929756071303976,2.3177039202041634,9.388156060531825,-0.001090830782496456,-0.001090830782496456,0.0,17.5,2.875,-31.75
1769121473.8906934,58.71854858949334,1.256680538940076,13.937653819613534,-0.20929756071303976,2.3177039202041634,9.388156060531825,-0.001090830782496456,-0.001090830782496456,0.0,17.5,2.875,-31.75
1769121473.9121659,58.71854858949334,1.256680538940076,13.937653819613534,-0.20953253450128895,2.3184719845447628,9.388772878882083,0.0,0.001090830782496456,0.001090830782496456,17.5,2.875,-31.75
1769121473.9277308,58.71854858949334,1.256680538940076,13.937653819613534,-0.20953253450128895,2.3184719845447628,9.388772878882083,0.0,0.001090830782496456,0.001090830782496456,17.5,2.875,-31.75
1769121473.9513948,58.71854858949334,1.256680538940076,13.937653819613534,-0.20968890693253958,2.3189831227835906,9.389183364603868,0.0,0.001090830782496456,-0.002181661564992912,18.0625,1.75,-32.5625
1769121473.9759936,58.71854858949334,1.256680538940076,13.937653819613534,-0.20979297103874237,2.312633056157104,9.396146761680928,0.001090830782496456,-0.002181661564992912,0.002181661564992912,18.0625,1.75,-32.5625
1769121473.992856,58.71854858949334,1.256680538940076,13.937653819613534,-0.20979297103874237,2.312633056157104,9.396146761680928,0.001090830782496456,-0.002181661564992912,0.002181661564992912,18.0625,1.75,-32.5625
1769121474.0092762,58.71854858949334,1.256680538940076,13.937653819613534,-0.20986222453894807,2.3150973811667073,9.394090601234831,0.0,0.0,0.0,18.0625,1.75,-32.5625
1769121474.0250232,58.71854858949334,1.256680538940076,13.937653819613534,-0.21325342367704206,2.3200824736396037,9.399412472841409,0.0,0.001090830782496456,-0.001090830782496456,17.0625,2.5625,-33.25
1769121474.0467887,58.71854858949334,1.256680538940076,13.937653819613534,-0.21325342367704206,2.3200824736396037,9.399412472841409,0.0,0.001090830782496456,-0.001090830782496456,17.0625,2.5625,-33.25
1769121474.0621107,58.71854858949334,1.256680538940076,13.937653819613534,-0.2121651171139477,2.3233999969931847,9.402954118946385,0.0,0.004363323129985824,-0.002181661564992912,17.0625,2.5625,-33.25
1769121474.0763154,58.71854858949334,1.256680538940076,13.937653819613534,-0.21478597296070867,2.31891754831119,9.408656156573787,0.001090830782496456,0.002181661564992912,0.0,17.0625,2.5625,-33.25
1769121474.097724,58.71854858949334,1.256680538940076,13.937653819613534,-0.2131850115425306,2.3159345287855553,9.41245079891889,-0.001090830782496456,0.002181661564992912,0.0,17.75,2.5625,-32.0625
1769121474.1121342,58.71854858949334,1.256680538940076,13.937653819613534,-0.2131850115425306,2.3159345287855553,9.41245079891889,-0.001090830782496456,-0.001090830782496456,-0.002181661564992912,17.75,2.5625,-32.0625
1769121474.1410627,58.71854858949334,1.256680538940076,13.937653819613534,-0.21546470130996334,2.317294474321076,9.404940755888665,-0.002181661564992912,0.001090830782496456,-0.001090830782496456,17.75,2.5625,-32.0625
1769121474.1591046,58.71854858949334,1.256680538940076,13.937653819613534,-0.21698180938438652,2.3215446145906977,9.399942906144728,0.001090830782496456,0.0,0.002181661564992912,17.0625,2.1875,-32.0625
1769121474.1838272,58.71854858949334,1.256680538940076,13.937653819613534,-0.21698180938438652,2.3215446145906977,9.399942906144728,0.001090830782496456,0.0,0.002181661564992912,17.0625,2.1875,-32.0625
1769121474.1973262,58.71854858949334,1.256680538940076,13.937653819613534,-0.21799142786070755,2.324373035462953,9.396616892969778,-0.001090830782496456,0.001090830782496456,-0.001090830782496456,17.0625,2.1875,-32.0625
1769121474.2121172,58.71854858949334,1.256680538940076,13.937653819613534,-0.21866331767852182,2.3262553179579077,9.39105835664853,-0.001090830782496456,0.0,-0.001090830782496456,17.0625,2.1875,-32.0625
1769121474.2265341,58.71854858949334,1.256680538940076,13.937653819613534,-0.21866331767852182,2.3262553179579077,9.39105835664853,-0.001090830782496456,0.0,-0.001090830782496456,17.0625,2.1875,-32.0625
1769121474.240861,58.71854858949334,1.256680538940076,13.937653819613534,-0.2124202294321374,2.327507955931827,9.387359212819659,0.0,-0.001090830782496456,0.0,18.0625,2.875,-31.75
1769121474.264752,58.71854858949334,1.256680538940076,13.937653819613534,-0.2149557473586726,2.328341572510587,9.388242585631009,0.002181661564992912,0.001090830782496456,-0.002181661564992912,18.0625,2.875,-31.75
1769121474.283309,58.71854858949334,1.256680538940076,13.937653819613534,-0.2166431062151907,2.3288963350316445,9.388830460369041,0.0,0.0,0.001090830782496456,18.0625,2.875,-31.75
1769121474.3132632,58.71854858949334,1.256680538940076,13.937653819613534,-0.2166431062151907,2.3288963350316445,9.388830460369041,0.0,0.0,0.001090830782496456,18.0625,2.875,-31.75
1769121474.3350968,58.71854858949334,1.256680538940076,13.937653819613534,-0.21776602468517003,2.3259204115849856,9.379186349318251,0.001090830782496456,0.001090830782496456,0.0,17.5,3.25,-30.5625
1769121474.3526123,58.71854858949334,1.256680538940076,13.937653819613534,-0.21516820267580067,2.323939967774477,9.372768301145731,0.001090830782496456,-0.001090830782496456,0.002181661564992912,17.5,3.25,-30.5625
1769121474.3700986,58.71854858949334,1.256680538940076,13.937653819613534,-0.21343938114813865,2.32596711624891,9.371842273488534,0.0,0.002181661564992912,0.0,17.5,3.25,-30.5625
1769121474.388704,58.71854858949334,1.256680538940076,13.937653819613534,-0.21343938114813865,2.32596711624891,9.371842273488534,0.0,0.002181661564992912,0.0,17.5,3.25,-30.5625
1769121474.4051352,58.71854858949334,1.256680538940076,13.937653819613534,-0.21228886973368144,2.327316160913913,9.371226012427076,0.0,0.0,-0.001090830782496456,17.75,2.1875,-33.0
1769121474.437567,58.71854858949334,1.256680538940076,13.937653819613534,-0.21152321723941475,2.328213935068656,9.370815897574763,0.0,-0.002181661564992912,0.001090830782496456,17.75,2.1875,-33.0
1769121474.4615989,58.71854858949334,1.256680538940076,13.937653819613534,-0.21152321723941475,2.328213935068656,9.370815897574763,0.0,-0.002181661564992912,0.001090830782496456,17.75,2.1875,-33.0
1769121474.4774811,58.71854858949334,1.256680538940076,13.937653819613534,-0.21435879576469843,2.3254662820325236,9.370542970721832,0.001090830782496456,0.002181661564992912,0.0,16.6875,2.875,-31.75
1769121474.4935958,58.71854858949334,1.256680538940076,13.937653819613534,-0.21624584159778712,2.3269828613375925,9.37036134095,-0.001090830782496456,0.0,0.0,16.6875,2.875,-31.75
1769121474.515928,58.71854858949334,1.256680538940076,13.937653819613534,-0.2175016495200245,2.3246470162164954,9.38362091519506,0.001090830782496456,0.002181661564992912,0.0,16.6875,2.875,-31.75
1769121474.5291045,58.71854858949334,1.256680538940076,13.937653819613534,-0.2175016495200245,2.3246470162164954,9.38362091519506,0.001090830782496456,0.002181661564992912,0.0,16.6875,2.875,-31.75
1769121474.5451188,58.71854858949334,1.256680538940076,13.937653819613534,-0.2149922639566604,2.323092537381505,9.389099902028677,0.001090830782496456,-0.001090830782496456,0.001090830782496456,17.75,2.5625,-33.25
1769121474.5577195,58.71854858949334,1.256680538940076,13.937653819613534,-0.21332229589591506,2.3220580490814853,9.396091218269477,0.0,0.002181661564992912,0.0,17.75,2.5625,-33.25
1769121474.574352,58.71854858949334,1.256680538940076,13.937653819613534,-0.21332229589591506,2.3220580490814853,9.396091218269477,0.0,0.002181661564992912,0.0,17.75,2.5625,-33.25
1769121474.5933552,58.71854858949334,1.256680538940076,13.937653819613534,-0.2122109508062546,2.324714720381133,9.39739874942229,-0.001090830782496456,0.001090830782496456,-0.002181661564992912,17.75,2.5625,-33.25
1769121474.605611,58.71854858949334,1.256680538940076,13.937653819613534,-0.21147136306362366,2.3264827054540858,9.398268896798408,0.0,0.001090830782496456,0.001090830782496456,18.5,2.875,-31.375
1769121474.6194117,58.71854858949334,1.256680538940076,13.937653819613534,-0.21147136306362366,2.3264827054540858,9.398268896798408,0.0,0.001090830782496456,0.001090830782496456,18.5,2.875,-31.375
1769121474.6313558,58.71854858949334,1.256680538940076,13.937653819613534,-0.2109791756826392,2.3276592797704487,9.39884797015703,-0.001090830782496456,0.001090830782496456,-0.001090830782496456,18.5,2.875,-31.375
1769121474.6434128,58.71854858949334,1.256680538940076,13.937653819613534,-0.2109791756826392,2.3276592797704487,9.39884797015703,-0.001090830782496456,0.001090830782496456,-0.001090830782496456,18.5,2.875,-31.375
1769121474.6555567,58.71854858949334,1.256680538940076,13.937653819613534,-0.2106516304786873,2.3250971651274726,9.395888225301201,-0.001090830782496456,-0.001090830782496456,0.001090830782496456,18.5,2.875,-31.375
1769121474.6688273,58.71854858949334,1.256680538940076,13.937653819613534,-0.21377876451169636,2.326737218160587,9.400608771576803,-0.002181661564992912,0.0,-0.002181661564992912,17.75,3.25,-30.5625
1769121474.6806333,58.71854858949334,1.256680538940076,13.937653819613534,-0.21377876451169636,2.326737218160587,9.400608771576803,-0.002181661564992912,0.0,-0.002181661564992912,17.75,3.25,-30.5625
1769121474.6932178,58.71854858949334,1.256680538940076,13.937653819613534,-0.2158598372782879,2.3244835434262123,9.39706001897662,0.0,0.0,0.0,17.75,3.25,-30.5625
1769121474.7083173,58.71854858949334,1.256680538940076,13.937653819613534,-0.21724476795734854,2.326328859773002,9.391353252056042,0.0,0.0,-0.001090830782496456,17.75,3.25,-30.5625
1769121474.7205079,58.71854858949334,1.256680538940076,13.937653819613534,-0.21724476795734854,2.326328859773002,9.391353252056042,0.0,0.0,-0.001090830782496456,17.75,3.25,-30.5625
1769121474.7325418,58.71854858949334,1.256680538940076,13.937653819613534,-0.21816642385357404,2.3242117854809368,9.384210350711841,0.0,0.001090830782496456,-0.001090830782496456,17.5,2.5625,-32.5625
1769121474.7443569,58.71854858949334,1.256680538940076,13.937653819613534,-0.21816642385357404,2.3242117854809368,9.384210350711841,0.0,0.001090830782496456,-0.001090830782496456,17.5,2.5625,-32.5625
1769121474.7571573,58.71854858949334,1.256680538940076,13.937653819613534,-0.21543466384962176,2.326148007896156,9.382801941366031,0.0,-0.001090830782496456,0.0,17.5,2.5625,-32.5625
1769121474.7718334,58.71854858949334,1.256680538940076,13.937653819613534,-0.21696181979006962,2.327436542284463,9.381864660679359,-0.001090830782496456,0.001090830782496456,-0.001090830782496456,17.5,2.5625,-32.5625
1769121474.784056,58.71854858949334,1.256680538940076,13.937653819613534,-0.21696181979006962,2.327436542284463,9.381864660679359,-0.001090830782496456,0.001090830782496456,-0.001090830782496456,17.5,2.5625,-32.5625
1769121474.8010492,58.71854858949334,1.256680538940076,13.937653819613534,-0.21463301330166865,2.3282940475260094,9.381240910852489,0.001090830782496456,0.0,-0.001090830782496456,16.0,2.875,-31.375
1769121474.8144572,58.71854858949334,1.256680538940076,13.937653819613534,-0.21463301330166865,2.3282940475260094,9.381240910852489,0.001090830782496456,0.0,-0.001090830782496456,16.0,2.875,-31.375
1769121474.8350558,58.71854858949334,1.256680538940076,13.937653819613534,-0.2164283303054302,2.3288647076852973,9.38082581231045,0.0,-0.002181661564992912,0.001090830782496456,16.0,2.875,-31.375
1769121474.848914,58.71854858949334,1.256680538940076,13.937653819613534,-0.21093287030178978,2.325899363939292,9.383894680574995,0.0,0.002181661564992912,0.0,16.0,2.875,-31.375
1769121474.8638182,58.71854858949334,1.256680538940076,13.937653819613534,-0.21093287030178978,2.325899363939292,9.383894680574995,0.0,0.002181661564992912,0.0,16.0,2.875,-31.375
1769121474.8767426,58.71854858949334,1.256680538940076,13.937653819613534,-0.2139659264723164,2.3205808490940663,9.385936978123546,0.001090830782496456,0.001090830782496456,-0.001090830782496456,17.5,2.5625,-32.0625
1769121474.8944545,58.71854858949334,1.256680538940076,13.937653819613534,-0.21263927976502506,2.3203865485835915,9.387296104328149,-0.001090830782496456,0.0,0.0,17.5,2.5625,-32.0625
1769121474.915992,58.71854858949334,1.256680538940076,13.937653819613534,-0.21263927976502506,2.3203865485835915,9.387296104328149,-0.001090830782496456,0.0,0.0,17.5,2.5625,-32.0625
1769121474.9296813,58.71854858949334,1.256680538940076,13.937653819613534,-0.2151015229082568,2.31691213205703,9.398235922756834,0.0,-0.001090830782496456,0.0,17.5,2.5625,-32.0625
1769121474.9418433,58.71854858949334,1.256680538940076,13.937653819613534,-0.2151015229082568,2.31691213205703,9.398235922756834,0.0,-0.001090830782496456,0.0,17.5,2.5625,-32.0625
1769121474.9577982,58.71854858949334,1.256680538940076,13.937653819613534,-0.21339500650770002,2.3145999466703793,9.392135802886068,-0.001090830782496456,0.0,0.0,17.0625,2.5625,-32.0625
1769121474.9774022,58.71854858949334,1.256680538940076,13.937653819613534,-0.21225933890616674,2.3130612131243664,9.401456688084155,0.001090830782496456,0.001090830782496456,0.0,17.0625,2.5625,-32.0625
1769121474.9911125,58.71854858949334,1.256680538940076,13.937653819613534,-0.21150356480358468,2.3187274265529134,9.404314521355053,0.001090830782496456,-0.001090830782496456,0.0,17.0625,2.5625,-32.0625
1769121475.0088725,58.71854858949334,1.256680538940076,13.937653819613534,-0.21150356480358468,2.3187274265529134,9.404314521355053,0.001090830782496456,-0.001090830782496456,0.0,17.0625,2.5625,-32.0625
1769121475.0222273,58.71854858949334,1.256680538940076,13.937653819613534,-0.21100060558086622,2.32249822829386,9.406216377472745,-0.001090830782496456,0.0,0.001090830782496456,17.75,2.875,-32.0625
1769121475.0391157,58.71854858949334,1.256680538940076,13.937653819613534,-0.21066589183656975,2.3216625430225255,9.404136929766626,-0.001090830782496456,-0.002181661564992912,0.0,17.75,2.875,-32.0625
1769121475.0645297,58.71854858949334,1.256680538940076,13.937653819613534,-0.21044314357873797,2.3211064038096683,9.402753080547155,0.0,0.003272492347489368,-0.002181661564992912,17.75,2.875,-32.0625
1769121475.0836644,58.71854858949334,1.256680538940076,13.937653819613534,-0.21044314357873797,2.3211064038096683,9.402753080547155,0.0,0.003272492347489368,-0.002181661564992912,17.75,2.875,-32.0625
1769121475.0965405,58.71854858949334,1.256680538940076,13.937653819613534,-0.2069497953940926,2.320736299375994,9.39179680922825,0.0,-0.001090830782496456,0.0,17.75,2.5625,-32.5625
1769121475.1145701,58.71854858949334,1.256680538940076,13.937653819613534,-0.20797012290778663,2.3238351107170403,9.394540868177046,0.0,-0.003272492347489368,-0.001090830782496456,17.75,2.5625,-32.5625
1769121475.132254,58.71854858949334,1.256680538940076,13.937653819613534,-0.21199425117766424,2.325897335048516,9.386331673632364,0.0,0.001090830782496456,0.002181661564992912,17.75,2.5625,-32.5625
1769121475.1501858,58.71854858949334,1.256680538940076,13.937653819613534,-0.21199425117766424,2.325897335048516,9.386331673632364,0.0,0.001090830782496456,0.002181661564992912,17.75,2.5625,-32.5625
1769121475.1633196,58.71854858949334,1.256680538940076,13.937653819613534,-0.218017375296129,2.3272697223045578,9.390903881487548,-0.001090830782496456,0.001090830782496456,-0.002181661564992912,18.5,3.6875,-31.75
1769121475.18445,58.71854858949334,1.256680538940076,13.937653819613534,-0.22202569711426234,2.3181476955709255,9.393946634740265,0.001090830782496456,0.001090830782496456,0.0,18.5,3.6875,-31.75
1769121475.2003667,58.71854858949334,1.256680538940076,13.937653819613534,-0.21800296709370276,2.3120770886794086,9.395971553040168,0.002181661564992912,0.001090830782496456,0.001090830782496456,18.5,3.6875,-31.75
1769121475.2183852,58.71854858949334,1.256680538940076,13.937653819613534,-0.21800296709370276,2.3120770886794086,9.395971553040168,0.002181661564992912,0.001090830782496456,0.001090830782496456,18.5,3.6875,-31.75
1769121475.2312176,58.71854858949334,1.256680538940076,13.937653819613534,-0.2119807734945397,2.314727391020865,9.397319113548933,-0.001090830782496456,-0.001090830782496456,-0.002181661564992912,16.0,3.25,-31.75
1769121475.2500305,58.71854858949334,1.256680538940076,13.937653819613534,-0.21131818263392643,2.316491137623287,9.388180564892322,-0.001090830782496456,-0.003272492347489368,0.0,16.0,3.25,-31.75
1769121475.2703397,58.71854858949334,1.256680538940076,13.937653819613534,-0.21131818263392643,2.316491137623287,9.388180564892322,-0.001090830782496456,-0.003272492347489368,0.0,16.0,3.25,-31.75
1769121475.2999222,58.71854858949334,1.256680538940076,13.937653819613534,-0.2108772358178132,2.3176648912848585,9.392134297967582,0.001090830782496456,-0.001090830782496456,-0.001090830782496456,16.0,3.25,-31.75
1769121475.3185205,58.71854858949334,1.256680538940076,13.937653819613534,-0.21058379063738852,2.318446011234947,9.388075239748437,0.0,0.0,-0.002181661564992912,17.0625,2.5625,-31.75
1769121475.3451235,58.71854858949334,1.256680538940076,13.937653819613534,-0.21058379063738852,2.318446011234947,9.388075239748437,0.0,0.0,-0.002181661564992912,17.0625,2.5625,-31.75
1769121475.36389,58.71854858949334,1.256680538940076,13.937653819613534,-0.21038850614781335,2.3223109495433687,9.388719093553565,0.001090830782496456,0.0,0.0,17.0625,2.5625,-31.75
1769121475.3811588,58.71854858949334,1.256680538940076,13.937653819613534,-0.21038850614781335,2.3223109495433687,9.388719093553565,0.001090830782496456,0.0,0.0,17.0625,2.5625,-31.75
1769121475.41208,-64.48203640723634,-14.711225679338895,-9.409603624035341,-0.21025854650147174,2.3248830228134336,9.38914757106856,0.0,0.0,0.0,17.75,1.75,-32.0625
1769121475.4372547,58.71854858949334,1.256680538940076,13.937653819613534,-0.21351717151589517,2.3265947088427206,9.389432718068383,0.0,-0.002181661564992912,0.001090830782496456,17.75,1.75,-32.0625
1769121475.4555454,58.71854858949334,1.256680538940076,13.937653819613534,-0.21903086176908682,2.3277338167744253,9.392967591918783,0.0,0.001090830782496456,0.0,17.75,1.75,-32.0625
1769121475.4708319,58.71854858949334,1.256680538940076,13.937653819613534,-0.21903086176908682,2.3277338167744253,9.392967591918783,0.0,0.001090830782496456,0.0,17.75,1.75,-32.0625
1769121475.4917953,58.71854858949334,1.256680538940076,13.937653819613534,-0.22270016104063006,2.3251467686709857,9.388629787564458,0.0,0.001090830782496456,0.0,17.0625,2.875,-31.75
1769121475.506925,58.71854858949334,1.256680538940076,13.937653819613534,-0.21845181530244476,2.3234251170573677,9.39577836234506,-0.001090830782496456,0.0,0.001090830782496456,17.0625,2.875,-31.75
1769121475.522326,58.71854858949334,1.256680538940076,13.937653819613534,-0.21845181530244476,2.3234251170573677,9.39577836234506,-0.001090830782496456,0.0,0.001090830782496456,17.0625,2.875,-31.75
1769121475.5356781,58.71854858949334,1.256680538940076,13.937653819613534,-0.21562458867081385,2.3189342654332945,9.393845435592102,-0.002181661564992912,0.001090830782496456,-0.001090830782496456,17.0625,2.875,-31.75
1769121475.550794,58.71854858949334,1.256680538940076,13.937653819613534,-0.21562458867081385,2.3189342654332945,9.393845435592102,-0.002181661564992912,0.001090830782496456,-0.001090830782496456,17.0625,2.875,-31.75
1769121475.565528,58.71854858949334,1.256680538940076,13.937653819613534,-0.21039798922233494,2.315945653843573,9.392559094430213,-0.001090830782496456,-0.002181661564992912,0.0,17.5,3.6875,-31.75
1769121475.578007,58.71854858949334,1.256680538940076,13.937653819613534,-0.2069197456743136,2.317301877922912,9.38835793704903,-0.001090830782496456,0.001090830782496456,0.001090830782496456,17.5,3.6875,-31.75
1769121475.5931194,58.71854858949334,1.256680538940076,13.937653819613534,-0.2069197456743136,2.317301877922912,9.38835793704903,-0.001090830782496456,0.001090830782496456,0.001090830782496456,17.5,3.6875,-31.75
1769121475.6057634,58.71854858949334,1.256680538940076,13.937653819613534,-0.20460501344763168,2.3182044298976963,9.385562113741855,0.0,0.001090830782496456,-0.003272492347489368,17.5,3.6875,-31.75
1769121475.6176295,58.71854858949334,1.256680538940076,13.937653819613534,-0.20460501344763168,2.3182044298976963,9.385562113741855,0.0,0.001090830782496456,-0.003272492347489368,17.5,3.6875,-31.75
1769121475.6299791,58.71854858949334,1.256680538940076,13.937653819613534,-0.20640969671534748,2.3221501798620685,9.383701524562323,-0.001090830782496456,-0.003272492347489368,-0.001090830782496456,17.5,2.875,-31.375
1769121475.6425292,58.71854858949334,1.256680538940076,13.937653819613534,-0.20761069327037932,2.3247760323864433,9.382463323247487,0.0,-0.002181661564992912,-0.001090830782496456,17.5,2.875,-31.375
1769121475.654589,58.71854858949334,1.256680538940076,13.937653819613534,-0.20761069327037932,2.3247760323864433,9.382463323247487,0.0,-0.002181661564992912,-0.001090830782496456,17.5,2.875,-31.375
1769121475.6675103,58.71854858949334,1.256680538940076,13.937653819613534,-0.20840994306174243,2.32652350790872,9.38163931410408,0.0,0.0,0.001090830782496456,17.5,2.875,-31.375
1769121475.681187,58.71854858949334,1.256680538940076,13.937653819613534,-0.2089418348696894,2.324341321640895,9.377745833516608,0.001090830782496456,-0.001090830782496456,0.001090830782496456,17.5,2.875,-32.5625
1769121475.6942787,58.71854858949334,1.256680538940076,13.937653819613534,-0.2089418348696894,2.324341321640895,9.377745833516608,0.001090830782496456,-0.001090830782496456,0.001090830782496456,17.5,2.875,-32.5625
1769121475.707503,58.71854858949334,1.256680538940076,13.937653819613534,-0.20595069121893794,2.3228891010562753,9.381844989093311,0.0,-0.001090830782496456,0.0,17.5,2.875,-32.5625
1769121475.7216055,58.71854858949334,1.256680538940076,13.937653819613534,-0.20730523023994613,2.321922664479578,9.387918043046358,-0.002181661564992912,-0.001090830782496456,0.0,17.5,2.875,-32.5625
1769121475.733431,58.71854858949334,1.256680538940076,13.937653819613534,-0.20730523023994613,2.321922664479578,9.387918043046358,-0.002181661564992912,-0.001090830782496456,0.0,17.5,2.875,-32.5625
1769121475.7453942,58.71854858949334,1.256680538940076,13.937653819613534,-0.21155177253455415,2.3212795117335894,9.391959592611654,0.0,0.0,0.0,18.0625,2.875,-31.75
1769121475.7572727,58.71854858949334,1.256680538940076,13.937653819613534,-0.21772291070194955,2.3241966124729405,9.394649198700291,0.0,0.0,-0.001090830782496456,18.0625,2.875,-31.75
1769121475.7710943,58.71854858949334,1.256680538940076,13.937653819613534,-0.21772291070194955,2.3241966124729405,9.394649198700291,0.0,0.0,-0.001090830782496456,18.0625,2.875,-31.75
1769121475.7833893,58.71854858949334,1.256680538940076,13.937653819613534,-0.21848462250890158,2.3261379104288284,9.396439101507411,-0.001090830782496456,0.0,0.0,18.0625,2.875,-31.75
1769121475.7952132,58.71854858949334,1.256680538940076,13.937653819613534,-0.21848462250890158,2.3261379104288284,9.396439101507411,-0.001090830782496456,0.0,0.0,18.0625,2.875,-31.75
1769121475.807917,58.71854858949334,1.256680538940076,13.937653819613534,-0.21899153320754974,2.3274298225327525,9.397630261831026,0.0,0.0,0.001090830782496456,18.5,3.25,-32.0625
