timestamp,yaw,pitch,roll,ax,ay,az,gx,gy,gz,mx,my,mz
1769121343.817696,0.0,0.0,0.0,0.0,0.0,0.0,0.001090830782496456,0.003272492347489368,0.0,19.25,3.1875,-7.875
1769121343.8311756,0.0,0.0,0.0,0.0,0.0,0.0,0.001090830782496456,0.003272492347489368,0.0,19.25,3.1875,-7.875
1769121343.8506422,0.0,0.0,0.0,-0.07693756926834583,0.7760659160980969,1.6725558536596918,-0.001090830782496456,0.001090830782496456,0.001090830782496456,19.25,3.1875,-7.875
1769121343.8641787,0.0,0.0,0.0,-0.07693756926834583,0.7760659160980969,1.6725558536596918,-0.001090830782496456,0.001090830782496456,0.001090830782496456,19.25,3.1875,-7.875
1769121343.8809655,0.0,0.0,0.0,-0.12144843875282892,1.2925291140370652,3.3451117073193837,-0.001090830782496456,0.0,0.0,19.25,3.1875,-7.875
1769121343.8928185,0.0,0.0,0.0,-0.12144843875282892,1.2925291140370652,3.3451117073193837,-0.001090830782496456,0.0,0.0,19.25,3.1875,-7.875
1769121343.9087353,0.16663383081708652,1.360682797106523,13.962440507800636,-0.15776014859039983,1.6362296029935084,5.017667560979075,-0.002181661564992912,0.002181661564992912,0.0,19.25,3.1875,-7.875
1769121343.9224105,0.16748448913785371,1.367626371693624,13.962480999067028,-0.18527029756624583,1.864958439007992,6.466881157155918,0.001090830782496456,0.003272492347489368,-0.002181661564992912,19.25,3.1875,-7.875
1769121343.9367797,0.16748448913785371,1.367626371693624,13.962480999067028,-0.18527029756624583,1.864958439007992,6.466881157155918,0.001090830782496456,0.003272492347489368,-0.002181661564992912,19.25,3.1875,-7.875
1769121343.9547453,0.16748448913785371,1.367626371693624,13.962480999067028,-0.20357799440117155,2.0171749243071173,7.427971504927684,0.001090830782496456,0.003272492347489368,0.001090830782496456,19.25,3.1875,-7.875
1769121343.9705849,0.08417534107932548,1.3676897915306059,13.963122141461316,-0.20357799440117155,2.0171749243071173,7.427971504927684,0.001090830782496456,0.003272492347489368,0.001090830782496456,19.25,3.1875,-7.875
1769121343.9903426,0.08417534107932548,1.3676897915306059,13.963122141461316,-0.20599053129055822,2.118775076999607,8.074256618701789,-1.5862359282377798e-06,-0.001090829629180199,-0.001090830782496456,20.005613701038733,3.845912823350441,-7.0625
1769121344.005719,0.08417534107932548,1.3676897915306059,13.963122141461316,-0.20954825791813006,2.1861932558173836,8.501007030733374,-0.001090829629180199,1.5862359282377798e-06,0.0,20.005613701038733,3.845912823350441,-7.0625
1769121344.0212908,0.08417534107932548,1.3676897915306059,13.963122141461316,-0.20954825791813006,2.1861932558173836,8.501007030733374,-0.001090829629180199,1.5862359282377798e-06,0.0,20.005613701038733,3.845912823350441,-7.0625
1769121344.0360663,0.08417534107932548,1.3676897915306059,13.963122141461316,-0.20954825791813006,2.1861932558173836,8.501007030733374,-0.001090829629180199,1.5862359282377798e-06,0.0,20.005613701038733,3.845912823350441,-7.0625
1769121344.0494843,0.08417534107932548,1.3676897915306059,13.963122141461316,-0.21191102093885253,2.2344044088808026,8.788349774533257,4.75870778471334e-06,0.0032724888875405975,-0.001090830782496456,20.005613701038733,3.845912823350441,-6.6875
1769121344.0636797,0.08417534107932548,1.3676897915306059,13.963122141461316,-0.2134882776428671,2.2631432845200488,8.979573160703314,-1.5862359282377798e-06,-0.001090829629180199,-0.002181661564992912,20.005613701038733,3.845912823350441,-6.6875
1769121344.075706,0.08417534107932548,1.3676897915306059,13.963122141461316,-0.2134882776428671,2.2631432845200488,8.979573160703314,-1.5862359282377798e-06,-0.001090829629180199,-0.002181661564992912,20.005613701038733,3.845912823350441,-6.6875
1769121344.089244,0.08417534107932548,1.3676897915306059,13.963122141461316,-0.2178781682233523,2.2856186577017987,9.1068301880943,-0.0021769005505756847,0.003275661359397073,-0.001090830782496456,20.005613701038733,3.845912823350441,-6.6875
1769121344.1046598,0.08417534107932548,1.3676897915306059,13.963122141461316,-0.2178781682233523,2.2856186577017987,9.1068301880943,-0.0021769005505756847,0.003275661359397073,-0.001090830782496456,20.005613701038733,3.845912823350441,-6.6875
1769121344.1228566,0.08417534107932548,1.3676897915306059,13.963122141461316,-0.22080445567389037,2.297230659317293,9.18817320656154,-0.0010860709213954857,0.003274075123468835,-0.001090830782496456,19.56865947134381,4.221548619237518,-6.6875
1769121344.1373796,0.08417534107932548,1.3676897915306059,13.963122141461316,-0.22080445567389037,2.297230659317293,9.18817320656154,-0.0010860709213954857,0.003274075123468835,-0.001090830782496456,19.56865947134381,4.221548619237518,-6.6875
1769121344.1507115,0.08417534107932548,1.3676897915306059,13.963122141461316,-0.2227518672834508,2.304958316677847,9.242306076690435,1.5862359282377798e-06,0.001090829629180199,-0.001090830782496456,19.56865947134381,4.221548619237518,-6.6875
1769121344.1622086,0.08417534107932548,1.3676897915306059,13.963122141461316,-0.22404784795560023,2.3101009863277064,9.278330897057433,-1.5862359282377798e-06,-0.001090829629180199,0.002181661564992912,19.56865947134381,4.221548619237518,-6.6875
1769121344.1741672,0.08417534107932548,1.3676897915306059,13.963122141461316,-0.22404784795560023,2.3101009863277064,9.278330897057433,-1.5862359282377798e-06,-0.001090829629180199,0.002181661564992912,19.56865947134381,4.221548619237518,-6.6875
1769121344.1878905,0.08417534107932548,1.3676897915306059,13.963122141461316,-0.22491030861586295,2.313523375532304,9.302305012588059,-0.001084484685467248,0.0043649047526490336,-0.001090830782496456,18.50616059470643,4.223093657845518,-7.5
1769121344.1994753,0.08417534107932548,1.3676897915306059,13.963122141461316,-0.22491030861586295,2.313523375532304,9.302305012588059,-0.001084484685467248,0.0043649047526490336,-0.001090830782496456,18.50616059470643,4.223093657845518,-7.5
1769121344.2127216,0.08417534107932548,1.3676897915306059,13.963122141461316,-0.22213915838035952,2.3157960730098552,9.32829485378723,-0.0010955883369649123,-0.0032709026516123596,0.001090830782496456,18.50616059470643,4.223093657845518,-7.5
1769121344.2242806,0.08417534107932548,1.3676897915306059,13.963122141461316,-0.22364009702499987,2.3173133921009876,9.332210355950453,3.1724718564755595e-06,0.002181659258360398,-0.001090830782496456,18.50616059470643,4.223093657845518,-7.5
1769121344.2359023,0.08417534107932548,1.3676897915306059,13.963122141461316,-0.22364009702499987,2.3173133921009876,9.332210355950453,3.1724718564755595e-06,0.002181659258360398,-0.001090830782496456,18.50616059470643,4.223093657845518,-7.5
1769121344.2471752,0.08417534107932548,1.3676897915306059,13.963122141461316,-0.22463409061890866,2.3216682591771627,9.334816078901053,1.5862359282377798e-06,0.001090829629180199,0.0,20.38188568929381,4.720366590484285,-7.0625
1769121344.2618618,0.08417534107932548,1.3676897915306059,13.963122141461316,-0.22529558225201896,2.324566374569305,9.336550158416843,1.5862359282377798e-06,0.001090829629180199,0.0,20.38188568929381,4.720366590484285,-7.0625
1769121344.272888,0.08417534107932548,1.3676897915306059,13.963122141461316,-0.22529558225201896,2.324566374569305,9.336550158416843,1.5862359282377798e-06,0.001090829629180199,0.0,20.38188568929381,4.720366590484285,-7.0625
1769121344.2848597,0.08417534107932548,1.3676897915306059,13.963122141461316,-0.22908577002261568,2.3231547941256294,9.341049280670983,-0.0010940021010366746,-0.00218007302243216,0.002181661564992912,20.38188568929381,4.720366590484285,-7.0625
1769121344.296128,0.08417534107932548,1.3676897915306059,13.963122141461316,-0.22908577002261568,2.3231547941256294,9.341049280670983,-0.0010940021010366746,-0.00218007302243216,0.002181661564992912,20.38188568929381,4.720366590484285,-7.0625
1769121344.3072667,0.08417534107932548,1.3676897915306059,13.963122141461316,-0.2282629894741848,2.3222105388012344,9.350733619687265,0.0010940021010366746,0.00218007302243216,0.001090830782496456,18.50752386406643,5.1605926666432085,-6.6875
1769121344.318137,0.08417534107932548,1.3676897915306059,13.963122141461316,-0.22437033003967355,2.3215772831233563,9.350488215706806,-0.00218007302243216,0.0010940021010366746,-0.001090830782496456,18.50752386406643,5.1605926666432085,-6.6875
1769121344.3290467,0.08417534107932548,1.3676897915306059,13.963122141461316,-0.22437033003967355,2.3215772831233563,9.350488215706806,-0.00218007302243216,0.0010940021010366746,-0.001090830782496456,18.50752386406643,5.1605926666432085,-6.6875
1769121344.3403885,0.08417534107932548,1.3676897915306059,13.963122141461316,-0.2217749443623453,2.324500966714249,9.346979790391833,0.0010955883369649123,0.0032709026516123596,0.0,18.50752386406643,5.1605926666432085,-6.6875
1769121344.352007,70.64188334167159,1.3616928066194178,13.962170282141198,-0.22673796052762385,2.3264563740993354,9.344644972536397,-0.001084484685467248,0.0043649047526490336,-0.001090830782496456,18.50752386406643,5.1605926666432085,-6.6875
1769121344.3628974,70.64188334167159,1.3616928066194178,13.962170282141198,-0.22673796052762385,2.3264563740993354,9.344644972536397,-0.001084484685467248,0.0043649047526490336,-0.001090830782496456,18.50752386406643,5.1605926666432085,-6.6875
1769121344.3738265,70.64188334167159,1.3616928066194178,13.962170282141198,-0.2300456566526097,2.324412567700187,9.343091177335229,3.1724718564755595e-06,0.002181659258360398,0.001090830782496456,18.882523467585507,5.160047358899209,-6.25
1769121344.384778,70.64188334167159,1.3616928066194178,13.962170282141198,-0.2300456566526097,2.324412567700187,9.343091177335229,3.1724718564755595e-06,0.002181659258360398,0.001090830782496456,18.882523467585507,5.160047358899209,-6.25
1769121344.3957982,70.64188334167159,1.3616928066194178,13.962170282141198,-0.23224689147440103,2.323052437372367,9.34874736740052,0.0010924158651084367,0.0010892433932519613,-0.001090830782496456,18.882523467585507,5.160047358899209,-6.25
1769121344.4066575,70.64188334167159,1.3616928066194178,13.962170282141198,-0.23224689147440103,2.323052437372367,9.34874736740052,0.0010924158651084367,0.0010892433932519613,-0.001090830782496456,18.882523467585507,5.160047358899209,-6.25
1769121344.4177158,70.69712661403744,1.3648051517608693,13.961698849745053,-0.2236764641471247,2.3221326929103054,9.352511498705189,-0.00218007302243216,0.0010940021010366746,-0.002181661564992912,18.882523467585507,5.160047358899209,-6.25
1769121344.4286075,70.69712661403744,1.3648051517608693,13.961698849745053,-0.2236764641471247,2.3221326929103054,9.352511498705189,-0.00218007302243216,0.0010940021010366746,-0.002181661564992912,18.882523467585507,5.160047358899209,-6.25
1769121344.44137,70.69712661403744,1.3648051517608693,13.961698849745053,-0.2246631568399515,2.3215303418600546,9.355016486040343,-0.0010860709213954857,0.003274075123468835,0.0,19.25688687873658,4.722002513716286,-5.5
1769121344.4538207,70.69712661403744,1.3648051517608693,13.961698849745053,-0.22196981732684054,2.3244697278278905,9.356683527129347,1.5862359282377798e-06,0.001090829629180199,0.0,19.25688687873658,4.722002513716286,-5.5
1769121344.464806,8.870558533260224,30.052831078890463,-131.5912499030818,-0.2235225381380304,2.326430720661908,9.36113803605933,0.0010924158651084367,0.0010892433932519613,0.001090830782496456,19.25688687873658,4.722002513716286,-5.5
1769121344.4757073,8.870558533260224,30.052831078890463,-131.5912499030818,-0.2235225381380304,2.326430720661908,9.36113803605933,0.0010924158651084367,0.0010892433932519613,0.001090830782496456,19.25688687873658,4.722002513716286,-5.5
1769121344.4866352,70.72854611263847,1.3666443541387077,13.96551111409129,-0.22122047693729008,2.3210406588385233,9.364102461992108,-0.0010924158651084367,-0.0010892433932519613,-0.001090830782496456,19.25688687873658,4.722002513716286,-5.5
1769121344.497574,70.72854611263847,1.3666443541387077,13.96551111409129,-0.22122047693729008,2.3210406588385233,9.364102461992108,-0.0010924158651084367,-0.0010892433932519613,-0.001090830782496456,19.25688687873658,4.722002513716286,-5.5
1769121344.5091872,70.72854611263847,1.3666443541387077,13.96551111409129,-0.21968848092390597,2.317453632905996,9.366075254335565,0.0,0.0,0.001090830782496456,20.00688608577473,4.720911898228286,-7.0625
1769121344.5213115,70.81446692357518,1.3659418029929322,13.964823972415646,-0.21866409038299953,2.3184116153881957,9.360697902187962,-3.1724718564755595e-06,-0.002181659258360398,0.001090830782496456,20.00688608577473,4.720911898228286,-7.0625
1769121344.5326712,70.81446692357518,1.3659418029929322,13.964823972415646,-0.21866409038299953,2.3184116153881957,9.360697902187962,-3.1724718564755595e-06,-0.002181659258360398,0.001090830782496456,20.00688608577473,4.720911898228286,-7.0625
1769121344.544138,70.81446692357518,1.3659418029929322,13.964823972415646,-0.22132747809180983,2.3190540063362506,9.36380955781733,-0.0021848317302168734,-0.0021784867865039226,0.0,20.00688608577473,4.720911898228286,-7.0625
1769121344.5563338,70.81446692357518,1.3659418029929322,13.964823972415646,-0.22132747809180983,2.3190540063362506,9.36380955781733,-0.0021848317302168734,-0.0021784867865039226,0.0,20.00688608577473,4.720911898228286,-7.0625
1769121344.5717247,70.91976190240914,1.3629072941385587,13.964763492957013,-0.22309993286003296,2.3194815103362036,9.365880329879204,-0.0010940021010366746,-0.00218007302243216,0.001090830782496456,19.568841240591812,4.346548487077209,-6.0
1769121344.5845435,70.91976190240914,1.3629072941385587,13.964763492957013,-0.22092950923056084,2.323106253335715,9.367258405554342,0.0010892433932519613,-0.0010924158651084367,0.0,19.568841240591812,4.346548487077209,-6.0
1769121344.5964944,70.91976190240914,1.3629072941385587,13.964763492957013,-0.22092950923056084,2.323106253335715,9.367258405554342,0.0010892433932519613,-0.0010924158651084367,0.0,19.568841240591812,4.346548487077209,-6.0
1769121344.6087098,71.17188571681412,1.3615468966008502,13.963115281353339,-0.21948511655036768,2.325518479310858,9.364830387814711,1.5862359282377798e-06,0.001090829629180199,-0.001090830782496456,19.568841240591812,4.346548487077209,-6.0
1769121344.6203463,71.17188571681412,1.3615468966008502,13.963115281353339,-0.21948511655036768,2.325518479310858,9.364830387814711,1.5862359282377798e-06,0.001090829629180199,-0.001090830782496456,19.568841240591812,4.346548487077209,-6.0
1769121344.6326327,71.17188571681412,1.3615468966008502,13.963115281353339,-0.21852388935662256,2.3271237887509857,9.363214569131722,-0.00109717457289315,-0.004361732280792559,0.0,19.25534184012858,3.6595036370789034,-5.5
1769121344.645101,71.17188571681412,1.3615468966008502,13.963115281353339,-0.22123417587490407,2.3248518603878336,9.362139259848071,-3.1724718564755595e-06,-0.002181659258360398,0.0,19.25534184012858,3.6595036370789034,-5.5
1769121344.656867,71.17188571681412,1.3615468966008502,13.963115281353339,-0.22123417587490407,2.3248518603878336,9.362139259848071,-3.1724718564755595e-06,-0.002181659258360398,0.0,19.25534184012858,3.6595036370789034,-5.5
1769121344.6715178,71.17188571681412,1.3615468966008502,13.963115281353339,-0.2230329769694201,2.3266850256118503,9.361423653531793,0.0,0.0,-0.001090830782496456,19.25534184012858,3.6595036370789034,-5.5
1769121344.6837544,71.17188571681412,1.3615468966008502,13.963115281353339,-0.2230329769694201,2.3266850256118503,9.361423653531793,0.0,0.0,-0.001090830782496456,19.25534184012858,3.6595036370789034,-5.5
1769121344.7044203,71.17188571681412,1.3615468966008502,13.963115281353339,-0.2242349233114118,2.324559868420044,9.354257202107517,-1.5862359282377798e-06,-0.001090829629180199,-0.001090830782496456,19.570022740703813,5.159047628035208,-6.0
1769121344.7177474,71.17188571681412,1.3615468966008502,13.963115281353339,-0.2242349233114118,2.324559868420044,9.354257202107517,-1.5862359282377798e-06,-0.001090829629180199,-0.001090830782496456,19.570022740703813,5.159047628035208,-6.0
1769121344.7385952,71.29932177757615,1.3655597033675109,13.960917889909542,-0.2250299408678708,2.3264907082190502,9.34948800873917,0.0,0.0,0.0,19.570022740703813,5.159047628035208,-6.0
1769121344.7531953,71.29932177757615,1.3655597033675109,13.960917889909542,-0.2250299408678708,2.3264907082190502,9.34948800873917,0.0,0.0,0.0,19.570022740703813,5.159047628035208,-6.0
1769121344.7656057,71.28399501245012,1.3674655507450701,13.961036471411939,-0.22556388047828235,2.3244305523658033,9.346314163827916,-0.001090829629180199,1.5862359282377798e-06,0.0,19.570022740703813,5.159047628035208,-6.0
1769121344.7858331,71.28399501245012,1.3674655507450701,13.961036471411939,-0.22556388047828235,2.3244305523658033,9.346314163827916,-0.001090829629180199,1.5862359282377798e-06,0.0,19.570022740703813,5.159047628035208,-6.0
1769121344.8021955,71.28399501245012,1.3674655507450701,13.961036471411939,-0.225919211324515,2.3230595416589166,9.344202005493647,-1.5862359282377798e-06,-0.001090829629180199,0.0,19.570477163823814,5.471547297634438,-6.6875
1769121344.8260422,71.28962903662269,1.3667268954297023,13.96060782928609,-0.2261556800333772,2.3221471493486763,9.342796387716545,0.0010876571573237234,-0.002183245494288636,0.001090830782496456,19.570477163823814,5.471547297634438,-6.6875
1769121344.8414755,71.28962903662269,1.3667268954297023,13.96060782928609,-0.2261556800333772,2.3221471493486763,9.342796387716545,0.0010876571573237234,-0.002183245494288636,0.001090830782496456,19.570477163823814,5.471547297634438,-6.6875
1769121344.873825,71.55144622280025,1.3642132846458506,13.95927102324404,-0.22296793914700494,2.321535098150785,9.351896299909622,1.5862359282377798e-06,0.001090829629180199,0.001090830782496456,19.570477163823814,5.471547297634438,-6.6875
1769121344.8934305,71.55144622280025,1.3642132846458506,13.95927102324404,-0.22296793914700494,2.321535098150785,9.351896299909622,1.5862359282377798e-06,0.001090829629180199,0.001090830782496456,19.570477163823814,5.471547297634438,-6.6875
1769121344.908547,71.55144622280025,1.3642132846458506,13.95927102324404,-0.22296793914700494,2.321535098150785,9.351896299909622,1.5862359282377798e-06,0.001090829629180199,0.001090830782496456,19.570477163823814,5.471547297634438,-6.6875
1769121344.9312658,71.55144622280025,1.3642132846458506,13.95927102324404,-0.22296793914700494,2.321535098150785,9.351896299909622,1.5862359282377798e-06,0.001090829629180199,0.001090830782496456,19.570477163823814,5.471547297634438,-6.6875
1769121344.9482827,nan,nan,nan,-0.21750628933344787,2.317777812437541,9.344571742992157,0.0,0.0,0.0,0.0,0.0,0.0
1769121344.9691114,nan,nan,nan,-0.21750628933344787,2.317777812437541,9.344571742992157,0.0,0.0,0.0,0.0,0.0,0.0
1769121344.9871237,nan,nan,nan,-0.21750628933344787,2.317777812437541,9.344571742992157,0.0,0.0,0.0,0.0,0.0,0.0
1769121345.0075026,nan,nan,nan,-0.21750628933344787,2.317777812437541,9.344571742992157,0.0,0.0,0.0,0.0,0.0,0.0
1769121345.0291405,nan,nan,nan,-0.21750628933344787,2.317777812437541,9.344571742992157,0.0,0.0,0.0,0.0,0.0,0.0
1769121345.0413053,nan,nan,nan,-0.21750628933344787,2.317777812437541,9.344571742992157,0.0,0.0,0.0,0.0,0.0,0.0
1769121345.0565298,nan,nan,nan,-0.21750628933344787,2.317777812437541,9.344571742992157,0.0,0.0,0.0,0.0,0.0,0.0
1769121345.0707269,nan,nan,nan,-0.21750628933344787,2.317777812437541,9.344571742992157,0.0,0.0,0.0,0.0,0.0,0.0
1769121345.0902247,nan,nan,nan,-0.21750628933344787,2.317777812437541,9.344571742992157,0.0,0.0,0.0,0.0,0.0,0.0
1769121345.1028244,nan,nan,nan,-0.21750628933344787,2.317777812437541,9.344571742992157,0.0,0.0,0.0,0.0,0.0,0.0
1769121345.1215756,nan,nan,nan,-0.21750628933344787,2.317777812437541,9.344571742992157,0.0,0.0,0.0,0.0,0.0,0.0
1769121345.1402812,nan,nan,nan,-0.21750628933344787,2.317777812437541,9.344571742992157,0.0,0.0,0.0,0.0,0.0,0.0
1769121345.1614232,nan,nan,nan,-0.21750628933344787,2.317777812437541,9.344571742992157,0.0,0.0,0.0,0.0,0.0,0.0
1769121345.1743376,nan,nan,nan,-0.21750628933344787,2.317777812437541,9.344571742992157,0.0,0.0,0.0,0.0,0.0,0.0
1769121345.1892693,nan,nan,nan,-0.21750628933344787,2.317777812437541,9.344571742992157,0.0,0.0,0.0,0.0,0.0,0.0
1769121345.2025702,nan,nan,nan,-0.21750628933344787,2.317777812437541,9.344571742992157,0.0,0.0,0.0,0.0,0.0,0.0
1769121345.2202172,nan,nan,nan,-0.21750628933344787,2.317777812437541,9.344571742992157,0.0,0.0,0.0,0.0,0.0,0.0
1769121345.2359293,nan,nan,nan,-0.21750628933344787,2.317777812437541,9.344571742992157,0.0,0.0,0.0,0.0,0.0,0.0
1769121345.2498856,nan,nan,nan,-0.21750628933344787,2.317777812437541,9.344571742992157,0.0,0.0,0.0,0.0,0.0,0.0
1769121345.2639432,nan,nan,nan,-0.21750628933344787,2.317777812437541,9.344571742992157,0.0,0.0,0.0,0.0,0.0,0.0
1769121345.2768974,nan,nan,nan,-0.21750628933344787,2.317777812437541,9.344571742992157,0.0,0.0,0.0,0.0,0.0,0.0
1769121345.2943106,nan,nan,nan,-0.21750628933344787,2.317777812437541,9.344571742992157,0.0,0.0,0.0,0.0,0.0,0.0
1769121345.314913,nan,nan,nan,-0.21750628933344787,2.317777812437541,9.344571742992157,0.0,0.0,0.0,0.0,0.0,0.0
1769121345.3266993,nan,nan,nan,-0.21750628933344787,2.317777812437541,9.344571742992157,0.0,0.0,0.0,0.0,0.0,0.0
1769121345.3488016,nan,nan,nan,-0.21750628933344787,2.317777812437541,9.344571742992157,0.0,0.0,0.0,0.0,0.0,0.0
1769121345.3643277,nan,nan,nan,-0.21750628933344787,2.317777812437541,9.344571742992157,0.0,0.0,0.0,0.0,0.0,0.0
1769121345.378062,nan,nan,nan,-0.21750628933344787,2.317777812437541,9.344571742992157,0.0,0.0,0.0,0.0,0.0,0.0
1769121345.3895974,nan,nan,nan,-0.21750628933344787,2.317777812437541,9.344571742992157,0.0,0.0,0.0,0.0,0.0,0.0
1769121345.4022684,nan,nan,nan,-0.21750628933344787,2.317777812437541,9.344571742992157,0.0,0.0,0.0,0.0,0.0,0.0
1769121345.4208694,nan,nan,nan,-0.21750628933344787,2.317777812437541,9.344571742992157,0.0,0.0,0.0,0.0,0.0,0.0
1769121345.4346864,nan,nan,nan,-0.21750628933344787,2.317777812437541,9.344571742992157,0.0,0.0,0.0,0.0,0.0,0.0
1769121345.4466925,nan,nan,nan,-0.21750628933344787,2.317777812437541,9.344571742992157,0.0,0.0,0.0,0.0,0.0,0.0
1769121345.458455,nan,nan,nan,-0.21750628933344787,2.317777812437541,9.344571742992157,0.0,0.0,0.0,0.0,0.0,0.0
1769121345.4736009,nan,nan,nan,-0.21750628933344787,2.317777812437541,9.344571742992157,0.0,0.0,0.0,0.0,0.0,0.0
1769121345.4885905,nan,nan,nan,-0.21750628933344787,2.317777812437541,9.344571742992157,0.0,0.0,0.0,0.0,0.0,0.0
1769121345.5024467,nan,nan,nan,-0.21750628933344787,2.317777812437541,9.344571742992157,0.0,0.0,0.0,0.0,0.0,0.0
1769121345.5141065,nan,nan,nan,-0.21750628933344787,2.317777812437541,9.344571742992157,0.0,0.0,0.0,0.0,0.0,0.0
1769121345.525956,nan,nan,nan,-0.21750628933344787,2.317777812437541,9.344571742992157,0.0,0.0,0.0,0.0,0.0,0.0
1769121345.537695,nan,nan,nan,-0.21750628933344787,2.317777812437541,9.344571742992157,0.0,0.0,0.0,0.0,0.0,0.0
1769121345.5491357,nan,nan,nan,-0.21750628933344787,2.317777812437541,9.344571742992157,0.0,0.0,0.0,0.0,0.0,0.0
1769121345.5612814,nan,nan,nan,-0.21750628933344787,2.317777812437541,9.344571742992157,0.0,0.0,0.0,0.0,0.0,0.0
1769121345.5728488,nan,nan,nan,-0.21750628933344787,2.317777812437541,9.344571742992157,0.0,0.0,0.0,0.0,0.0,0.0
1769121345.587852,nan,nan,nan,-0.21750628933344787,2.317777812437541,9.344571742992157,0.0,0.0,0.0,0.0,0.0,0.0
1769121345.5997403,nan,nan,nan,-0.21750628933344787,2.317777812437541,9.344571742992157,0.0,0.0,0.0,0.0,0.0,0.0
1769121345.6115143,nan,nan,nan,-0.21750628933344787,2.317777812437541,9.344571742992157,0.0,0.0,0.0,0.0,0.0,0.0
1769121345.6312385,nan,nan,nan,-0.21750628933344787,2.317777812437541,9.344571742992157,0.0,0.0,0.0,0.0,0.0,0.0
1769121345.6430428,nan,nan,nan,-0.21750628933344787,2.317777812437541,9.344571742992157,0.0,0.0,0.0,0.0,0.0,0.0
1769121345.6541364,nan,nan,nan,-0.21750628933344787,2.317777812437541,9.344571742992157,0.0,0.0,0.0,0.0,0.0,0.0
1769121345.6655855,nan,nan,nan,-0.21750628933344787,2.317777812437541,9.344571742992157,0.0,0.0,0.0,0.0,0.0,0.0
1769121345.6767364,nan,nan,nan,-0.21750628933344787,2.317777812437541,9.344571742992157,0.0,0.0,0.0,0.0,0.0,0.0
1769121345.6895278,nan,nan,nan,-0.21750628933344787,2.317777812437541,9.344571742992157,0.0,0.0,0.0,0.0,0.0,0.0
1769121345.7038012,nan,nan,nan,-0.21750628933344787,2.317777812437541,9.344571742992157,0.0,0.0,0.0,0.0,0.0,0.0
1769121345.7155788,nan,nan,nan,-0.21750628933344787,2.317777812437541,9.344571742992157,0.0,0.0,0.0,0.0,0.0,0.0
1769121345.7287424,nan,nan,nan,-0.21750628933344787,2.317777812437541,9.344571742992157,0.0,0.0,0.0,0.0,0.0,0.0
1769121345.7430818,nan,nan,nan,-0.21750628933344787,2.317777812437541,9.344571742992157,0.0,0.0,0.0,0.0,0.0,0.0
1769121345.754533,nan,nan,nan,-0.21750628933344787,2.317777812437541,9.344571742992157,0.0,0.0,0.0,0.0,0.0,0.0
1769121345.7665312,nan,nan,nan,-0.21750628933344787,2.317777812437541,9.344571742992157,0.0,0.0,0.0,0.0,0.0,0.0
1769121345.7806184,nan,nan,nan,-0.21750628933344787,2.317777812437541,9.344571742992157,0.0,0.0,0.0,0.0,0.0,0.0
1769121345.7925553,nan,nan,nan,-0.21750628933344787,2.317777812437541,9.344571742992157,0.0,0.0,0.0,0.0,0.0,0.0
1769121345.8040469,nan,nan,nan,-0.21750628933344787,2.317777812437541,9.344571742992157,0.0,0.0,0.0,0.0,0.0,0.0
1769121345.8159783,nan,nan,nan,-0.21750628933344787,2.317777812437541,9.344571742992157,0.0,0.0,0.0,0.0,0.0,0.0
1769121345.8275423,nan,nan,nan,-0.21750628933344787,2.317777812437541,9.344571742992157,0.0,0.0,0.0,0.0,0.0,0.0
1769121345.8388379,nan,nan,nan,-0.21750628933344787,2.317777812437541,9.344571742992157,0.0,0.0,0.0,0.0,0.0,0.0
1769121345.8509352,nan,nan,nan,-0.21750628933344787,2.317777812437541,9.344571742992157,0.0,0.0,0.0,0.0,0.0,0.0
1769121345.8631597,nan,nan,nan,-0.21750628933344787,2.317777812437541,9.344571742992157,0.0,0.0,0.0,0.0,0.0,0.0
1769121345.8777912,nan,nan,nan,-0.21750628933344787,2.317777812437541,9.344571742992157,0.0,0.0,0.0,0.0,0.0,0.0
1769121345.8891065,nan,nan,nan,-0.21750628933344787,2.317777812437541,9.344571742992157,0.0,0.0,0.0,0.0,0.0,0.0
1769121345.9013762,nan,nan,nan,-0.21750628933344787,2.317777812437541,9.344571742992157,0.0,0.0,0.0,0.0,0.0,0.0
1769121345.914999,nan,nan,nan,-0.21750628933344787,2.317777812437541,9.344571742992157,0.0,0.0,0.0,0.0,0.0,0.0
1769121345.9287722,nan,nan,nan,-0.21750628933344787,2.317777812437541,9.344571742992157,0.0,0.0,0.0,0.0,0.0,0.0
1769121345.9427738,nan,nan,nan,-0.21750628933344787,2.317777812437541,9.344571742992157,0.0,0.0,0.0,0.0,0.0,0.0
1769121345.9551532,nan,nan,nan,-0.21750628933344787,2.317777812437541,9.344571742992157,0.0,0.0,0.0,0.0,0.0,0.0
1769121345.9675744,nan,nan,nan,-0.21750628933344787,2.317777812437541,9.344571742992157,0.0,0.0,0.0,0.0,0.0,0.0
1769121345.981751,nan,nan,nan,-0.21750628933344787,2.317777812437541,9.344571742992157,0.0,0.0,0.0,0.0,0.0,0.0
1769121345.9943328,nan,nan,nan,-0.21750628933344787,2.317777812437541,9.344571742992157,0.0,0.0,0.0,0.0,0.0,0.0
1769121346.0060904,nan,nan,nan,-0.21750628933344787,2.317777812437541,9.344571742992157,0.0,0.0,0.0,0.0,0.0,0.0
1769121346.0175476,nan,nan,nan,-0.21750628933344787,2.317777812437541,9.344571742992157,0.0,0.0,0.0,0.0,0.0,0.0
1769121346.029685,nan,nan,nan,-0.21750628933344787,2.317777812437541,9.344571742992157,0.0,0.0,0.0,0.0,0.0,0.0
1769121346.0498435,nan,nan,nan,-0.21750628933344787,2.317777812437541,9.344571742992157,0.0,0.0,0.0,0.0,0.0,0.0
1769121346.061601,nan,nan,nan,-0.21750628933344787,2.317777812437541,9.344571742992157,0.0,0.0,0.0,0.0,0.0,0.0
1769121346.0736208,nan,nan,nan,-0.21750628933344787,2.317777812437541,9.344571742992157,0.0,0.0,0.0,0.0,0.0,0.0
1769121346.088389,nan,nan,nan,-0.21750628933344787,2.317777812437541,9.344571742992157,0.0,0.0,0.0,0.0,0.0,0.0
1769121346.1040845,nan,nan,nan,-0.21750628933344787,2.317777812437541,9.344571742992157,0.0,0.0,0.0,0.0,0.0,0.0
1769121346.1162877,nan,nan,nan,-0.21750628933344787,2.317777812437541,9.344571742992157,0.0,0.0,0.0,0.0,0.0,0.0
1769121346.1292124,nan,nan,nan,-0.21750628933344787,2.317777812437541,9.344571742992157,0.0,0.0,0.0,0.0,0.0,0.0
1769121346.141265,nan,nan,nan,-0.21750628933344787,2.317777812437541,9.344571742992157,0.0,0.0,0.0,0.0,0.0,0.0
1769121346.1533644,nan,nan,nan,-0.21750628933344787,2.317777812437541,9.344571742992157,0.0,0.0,0.0,0.0,0.0,0.0
1769121346.167773,nan,nan,nan,-0.21750628933344787,2.317777812437541,9.344571742992157,0.0,0.0,0.0,0.0,0.0,0.0
1769121346.1812959,nan,nan,nan,-0.21750628933344787,2.317777812437541,9.344571742992157,0.0,0.0,0.0,0.0,0.0,0.0
1769121346.1928203,nan,nan,nan,-0.21750628933344787,2.317777812437541,9.344571742992157,0.0,0.0,0.0,0.0,0.0,0.0
1769121346.2067559,nan,nan,nan,-0.21750628933344787,2.317777812437541,9.344571742992157,0.0,0.0,0.0,0.0,0.0,0.0
1769121346.22173,nan,nan,nan,-0.21750628933344787,2.317777812437541,9.344571742992157,0.0,0.0,0.0,0.0,0.0,0.0
1769121346.2350109,nan,nan,nan,-0.21750628933344787,2.317777812437541,9.344571742992157,0.0,0.0,0.0,0.0,0.0,0.0
1769121346.246463,nan,nan,nan,-0.21750628933344787,2.317777812437541,9.344571742992157,0.0,0.0,0.0,0.0,0.0,0.0
1769121346.2577405,nan,nan,nan,-0.21750628933344787,2.317777812437541,9.344571742992157,0.0,0.0,0.0,0.0,0.0,0.0
1769121346.2732098,nan,nan,nan,-0.21750628933344787,2.317777812437541,9.344571742992157,0.0,0.0,0.0,0.0,0.0,0.0
1769121346.2888312,nan,nan,nan,-0.21750628933344787,2.317777812437541,9.344571742992157,0.0,0.0,0.0,0.0,0.0,0.0
1769121346.3025808,nan,nan,nan,-0.21750628933344787,2.317777812437541,9.344571742992157,0.0,0.0,0.0,0.0,0.0,0.0
1769121346.313897,nan,nan,nan,-0.21750628933344787,2.317777812437541,9.344571742992157,0.0,0.0,0.0,0.0,0.0,0.0
1769121346.3259096,nan,nan,nan,-0.21750628933344787,2.317777812437541,9.344571742992157,0.0,0.0,0.0,0.0,0.0,0.0
1769121346.338204,nan,nan,nan,-0.21750628933344787,2.317777812437541,9.344571742992157,0.0,0.0,0.0,0.0,0.0,0.0
1769121346.3522532,nan,nan,nan,-0.21750628933344787,2.317777812437541,9.344571742992157,0.0,0.0,0.0,0.0,0.0,0.0
1769121346.3686266,nan,nan,nan,-0.21750628933344787,2.317777812437541,9.344571742992157,0.0,0.0,0.0,0.0,0.0,0.0
1769121346.381567,nan,nan,nan,-0.21750628933344787,2.317777812437541,9.344571742992157,0.0,0.0,0.0,0.0,0.0,0.0
1769121346.3932645,nan,nan,nan,-0.21750628933344787,2.317777812437541,9.344571742992157,0.0,0.0,0.0,0.0,0.0,0.0
1769121346.406514,nan,nan,nan,-0.21750628933344787,2.317777812437541,9.344571742992157,0.0,0.0,0.0,0.0,0.0,0.0
1769121346.420722,nan,nan,nan,-0.21750628933344787,2.317777812437541,9.344571742992157,0.0,0.0,0.0,0.0,0.0,0.0
1769121346.43241,nan,nan,nan,-0.21750628933344787,2.317777812437541,9.344571742992157,0.0,0.0,0.0,0.0,0.0,0.0
1769121346.4441044,nan,nan,nan,-0.21750628933344787,2.317777812437541,9.344571742992157,0.0,0.0,0.0,0.0,0.0,0.0
1769121346.4572985,nan,nan,nan,-0.21750628933344787,2.317777812437541,9.344571742992157,0.0,0.0,0.0,0.0,0.0,0.0
1769121346.469131,nan,nan,nan,-0.21750628933344787,2.317777812437541,9.344571742992157,0.0,0.0,0.0,0.0,0.0,0.0
1769121346.4869578,nan,nan,nan,-0.21750628933344787,2.317777812437541,9.344571742992157,0.0,0.0,0.0,0.0,0.0,0.0
1769121346.4985132,nan,nan,nan,-0.21750628933344787,2.317777812437541,9.344571742992157,0.0,0.0,0.0,0.0,0.0,0.0
1769121346.510938,nan,nan,nan,-0.21750628933344787,2.317777812437541,9.344571742992157,0.0,0.0,0.0,0.0,0.0,0.0
1769121346.5234747,nan,nan,nan,-0.21750628933344787,2.317777812437541,9.344571742992157,0.0,0.0,0.0,0.0,0.0,0.0
1769121346.5356636,nan,nan,nan,-0.21750628933344787,2.317777812437541,9.344571742992157,0.0,0.0,0.0,0.0,0.0,0.0
1769121346.547397,nan,nan,nan,-0.21750628933344787,2.317777812437541,9.344571742992157,0.0,0.0,0.0,0.0,0.0,0.0
1769121346.5597463,nan,nan,nan,-0.21750628933344787,2.317777812437541,9.344571742992157,0.0,0.0,0.0,0.0,0.0,0.0
1769121346.571733,nan,nan,nan,-0.21750628933344787,2.317777812437541,9.344571742992157,0.0,0.0,0.0,0.0,0.0,0.0
1769121346.583799,nan,nan,nan,-0.21750628933344787,2.317777812437541,9.344571742992157,0.0,0.0,0.0,0.0,0.0,0.0
1769121346.5963488,nan,nan,nan,-0.21750628933344787,2.317777812437541,9.344571742992157,0.0,0.0,0.0,0.0,0.0,0.0
1769121346.6089652,nan,nan,nan,-0.21750628933344787,2.317777812437541,9.344571742992157,0.0,0.0,0.0,0.0,0.0,0.0
1769121346.628131,nan,nan,nan,-0.21750628933344787,2.317777812437541,9.344571742992157,0.0,0.0,0.0,0.0,0.0,0.0
1769121346.6441648,nan,nan,nan,-0.21750628933344787,2.317777812437541,9.344571742992157,0.0,0.0,0.0,0.0,0.0,0.0
1769121346.6576157,nan,nan,nan,-0.21750628933344787,2.317777812437541,9.344571742992157,0.0,0.0,0.0,0.0,0.0,0.0
1769121346.66973,nan,nan,nan,-0.21750628933344787,2.317777812437541,9.344571742992157,0.0,0.0,0.0,0.0,0.0,0.0
1769121346.683185,nan,nan,nan,-0.21750628933344787,2.317777812437541,9.344571742992157,0.0,0.0,0.0,0.0,0.0,0.0
1769121346.7059548,nan,nan,nan,-0.21750628933344787,2.317777812437541,9.344571742992157,0.0,0.0,0.0,0.0,0.0,0.0
1769121346.7205513,nan,nan,nan,-0.21750628933344787,2.317777812437541,9.344571742992157,0.0,0.0,0.0,0.0,0.0,0.0
1769121346.7331772,nan,nan,nan,-0.21750628933344787,2.317777812437541,9.344571742992157,0.0,0.0,0.0,0.0,0.0,0.0
1769121346.7465787,nan,nan,nan,-0.21750628933344787,2.317777812437541,9.344571742992157,0.0,0.0,0.0,0.0,0.0,0.0
1769121346.7586253,nan,nan,nan,-0.21750628933344787,2.317777812437541,9.344571742992157,0.0,0.0,0.0,0.0,0.0,0.0
1769121346.7700598,nan,nan,nan,-0.21750628933344787,2.317777812437541,9.344571742992157,0.0,0.0,0.0,0.0,0.0,0.0
1769121346.781335,nan,nan,nan,-0.21750628933344787,2.317777812437541,9.344571742992157,0.0,0.0,0.0,0.0,0.0,0.0
1769121346.7925193,nan,nan,nan,-0.21750628933344787,2.317777812437541,9.344571742992157,0.0,0.0,0.0,0.0,0.0,0.0
1769121346.803906,nan,nan,nan,-0.21750628933344787,2.317777812437541,9.344571742992157,0.0,0.0,0.0,0.0,0.0,0.0
1769121346.8150766,nan,nan,nan,-0.21750628933344787,2.317777812437541,9.344571742992157,0.0,0.0,0.0,0.0,0.0,0.0
1769121346.8271818,nan,nan,nan,-0.21750628933344787,2.317777812437541,9.344571742992157,0.0,0.0,0.0,0.0,0.0,0.0
1769121346.8394263,nan,nan,nan,-0.21750628933344787,2.317777812437541,9.344571742992157,0.0,0.0,0.0,0.0,0.0,0.0
1769121346.854519,nan,nan,nan,-0.21750628933344787,2.317777812437541,9.344571742992157,0.0,0.0,0.0,0.0,0.0,0.0
1769121346.8675416,nan,nan,nan,-0.21750628933344787,2.317777812437541,9.344571742992157,0.0,0.0,0.0,0.0,0.0,0.0
1769121346.8800676,nan,nan,nan,-0.21750628933344787,2.317777812437541,9.344571742992157,0.0,0.0,0.0,0.0,0.0,0.0
1769121346.8927643,nan,nan,nan,-0.21750628933344787,2.317777812437541,9.344571742992157,0.0,0.0,0.0,0.0,0.0,0.0
1769121346.904935,nan,nan,nan,-0.21750628933344787,2.317777812437541,9.344571742992157,0.0,0.0,0.0,0.0,0.0,0.0
1769121346.9178052,nan,nan,nan,-0.21750628933344787,2.317777812437541,9.344571742992157,0.0,0.0,0.0,0.0,0.0,0.0
1769121346.9329042,nan,nan,nan,-0.21750628933344787,2.317777812437541,9.344571742992157,0.0,0.0,0.0,0.0,0.0,0.0
1769121346.944669,nan,nan,nan,-0.21750628933344787,2.317777812437541,9.344571742992157,0.0,0.0,0.0,0.0,0.0,0.0
1769121346.956516,nan,nan,nan,-0.21750628933344787,2.317777812437541,9.344571742992157,0.0,0.0,0.0,0.0,0.0,0.0
1769121346.974074,nan,nan,nan,-0.21750628933344787,2.317777812437541,9.344571742992157,0.0,0.0,0.0,0.0,0.0,0.0
1769121346.9879925,nan,nan,nan,-0.21750628933344787,2.317777812437541,9.344571742992157,0.0,0.0,0.0,0.0,0.0,0.0
1769121347.0004594,nan,nan,nan,-0.21750628933344787,2.317777812437541,9.344571742992157,0.0,0.0,0.0,0.0,0.0,0.0
1769121347.0135145,nan,nan,nan,-0.21750628933344787,2.317777812437541,9.344571742992157,0.0,0.0,0.0,0.0,0.0,0.0
1769121347.0277739,nan,nan,nan,-0.21750628933344787,2.317777812437541,9.344571742992157,0.0,0.0,0.0,0.0,0.0,0.0
1769121347.0401444,nan,nan,nan,-0.21750628933344787,2.317777812437541,9.344571742992157,0.0,0.0,0.0,0.0,0.0,0.0
1769121347.0519938,nan,nan,nan,-0.21750628933344787,2.317777812437541,9.344571742992157,0.0,0.0,0.0,0.0,0.0,0.0
1769121347.0653768,nan,nan,nan,-0.21750628933344787,2.317777812437541,9.344571742992157,0.0,0.0,0.0,0.0,0.0,0.0
1769121347.077896,nan,nan,nan,-0.21750628933344787,2.317777812437541,9.344571742992157,0.0,0.0,0.0,0.0,0.0,0.0
1769121347.091381,nan,nan,nan,-0.21750628933344787,2.317777812437541,9.344571742992157,0.0,0.0,0.0,0.0,0.0,0.0
1769121347.1035244,nan,nan,nan,-0.21750628933344787,2.317777812437541,9.344571742992157,0.0,0.0,0.0,0.0,0.0,0.0
1769121347.1149719,nan,nan,nan,-0.21750628933344787,2.317777812437541,9.344571742992157,0.0,0.0,0.0,0.0,0.0,0.0
1769121347.1261775,nan,nan,nan,-0.21750628933344787,2.317777812437541,9.344571742992157,0.0,0.0,0.0,0.0,0.0,0.0
1769121347.137516,nan,nan,nan,-0.21750628933344787,2.317777812437541,9.344571742992157,0.0,0.0,0.0,0.0,0.0,0.0
1769121347.1489828,nan,nan,nan,-0.21750628933344787,2.317777812437541,9.344571742992157,0.0,0.0,0.0,0.0,0.0,0.0
1769121347.1603303,nan,nan,nan,-0.21750628933344787,2.317777812437541,9.344571742992157,0.0,0.0,0.0,0.0,0.0,0.0
1769121347.1718633,nan,nan,nan,-0.21750628933344787,2.317777812437541,9.344571742992157,0.0,0.0,0.0,0.0,0.0,0.0
1769121347.1832986,nan,nan,nan,-0.21750628933344787,2.317777812437541,9.344571742992157,0.0,0.0,0.0,0.0,0.0,0.0
1769121347.1946802,nan,nan,nan,-0.21750628933344787,2.317777812437541,9.344571742992157,0.0,0.0,0.0,0.0,0.0,0.0
1769121347.2067945,nan,nan,nan,-0.21750628933344787,2.317777812437541,9.344571742992157,0.0,0.0,0.0,0.0,0.0,0.0
1769121347.219101,nan,nan,nan,-0.21750628933344787,2.317777812437541,9.344571742992157,0.0,0.0,0.0,0.0,0.0,0.0
1769121347.2306292,nan,nan,nan,-0.21750628933344787,2.317777812437541,9.344571742992157,0.0,0.0,0.0,0.0,0.0,0.0
1769121347.241894,nan,nan,nan,-0.21750628933344787,2.317777812437541,9.344571742992157,0.0,0.0,0.0,0.0,0.0,0.0
1769121347.2541606,nan,nan,nan,-0.21750628933344787,2.317777812437541,9.344571742992157,0.0,0.0,0.0,0.0,0.0,0.0
1769121347.2674165,nan,nan,nan,-0.21750628933344787,2.317777812437541,9.344571742992157,0.0,0.0,0.0,0.0,0.0,0.0
1769121347.2789264,nan,nan,nan,-0.21750628933344787,2.317777812437541,9.344571742992157,0.0,0.0,0.0,0.0,0.0,0.0
1769121347.2910528,nan,nan,nan,-0.21750628933344787,2.317777812437541,9.344571742992157,0.0,0.0,0.0,0.0,0.0,0.0
1769121347.3023653,nan,nan,nan,-0.21750628933344787,2.317777812437541,9.344571742992157,0.0,0.0,0.0,0.0,0.0,0.0
1769121347.314276,nan,nan,nan,-0.21750628933344787,2.317777812437541,9.344571742992157,0.0,0.0,0.0,0.0,0.0,0.0
1769121347.3285499,nan,nan,nan,-0.21750628933344787,2.317777812437541,9.344571742992157,0.0,0.0,0.0,0.0,0.0,0.0
1769121347.3436403,nan,nan,nan,-0.21750628933344787,2.317777812437541,9.344571742992157,0.0,0.0,0.0,0.0,0.0,0.0
1769121347.356204,nan,nan,nan,-0.21750628933344787,2.317777812437541,9.344571742992157,0.0,0.0,0.0,0.0,0.0,0.0
1769121347.370136,nan,nan,nan,-0.21750628933344787,2.317777812437541,9.344571742992157,0.0,0.0,0.0,0.0,0.0,0.0
1769121347.3877337,nan,nan,nan,-0.21750628933344787,2.317777812437541,9.344571742992157,0.0,0.0,0.0,0.0,0.0,0.0
1769121347.4026856,nan,nan,nan,-0.21750628933344787,2.317777812437541,9.344571742992157,0.0,0.0,0.0,0.0,0.0,0.0
1769121347.4207082,nan,nan,nan,-0.21750628933344787,2.317777812437541,9.344571742992157,0.0,0.0,0.0,0.0,0.0,0.0
1769121347.4329262,nan,nan,nan,-0.21750628933344787,2.317777812437541,9.344571742992157,0.0,0.0,0.0,0.0,0.0,0.0
1769121347.4528928,nan,nan,nan,-0.21750628933344787,2.317777812437541,9.344571742992157,0.0,0.0,0.0,0.0,0.0,0.0
1769121347.4670112,nan,nan,nan,-0.21750628933344787,2.317777812437541,9.344571742992157,0.0,0.0,0.0,0.0,0.0,0.0
1769121347.4785843,nan,nan,nan,-0.21750628933344787,2.317777812437541,9.344571742992157,0.0,0.0,0.0,0.0,0.0,0.0
1769121347.4903069,nan,nan,nan,-0.21750628933344787,2.317777812437541,9.344571742992157,0.0,0.0,0.0,0.0,0.0,0.0
1769121347.5022314,nan,nan,nan,-0.21750628933344787,2.317777812437541,9.344571742992157,0.0,0.0,0.0,0.0,0.0,0.0
1769121347.5194442,nan,nan,nan,-0.21750628933344787,2.317777812437541,9.344571742992157,0.0,0.0,0.0,0.0,0.0,0.0
1769121347.5312629,nan,nan,nan,-0.21750628933344787,2.317777812437541,9.344571742992157,0.0,0.0,0.0,0.0,0.0,0.0
1769121347.5435553,nan,nan,nan,-0.21750628933344787,2.317777812437541,9.344571742992157,0.0,0.0,0.0,0.0,0.0,0.0
1769121347.5577564,nan,nan,nan,-0.21750628933344787,2.317777812437541,9.344571742992157,0.0,0.0,0.0,0.0,0.0,0.0
1769121347.572195,nan,nan,nan,-0.21750628933344787,2.317777812437541,9.344571742992157,0.0,0.0,0.0,0.0,0.0,0.0
1769121347.5936067,nan,nan,nan,-0.21750628933344787,2.317777812437541,9.344571742992157,0.0,0.0,0.0,0.0,0.0,0.0
1769121347.6059968,nan,nan,nan,-0.21750628933344787,2.317777812437541,9.344571742992157,0.0,0.0,0.0,0.0,0.0,0.0
1769121347.6178036,nan,nan,nan,-0.21750628933344787,2.317777812437541,9.344571742992157,0.0,0.0,0.0,0.0,0.0,0.0
1769121347.6298516,nan,nan,nan,-0.21750628933344787,2.317777812437541,9.344571742992157,0.0,0.0,0.0,0.0,0.0,0.0
1769121347.6444204,nan,nan,nan,-0.21750628933344787,2.317777812437541,9.344571742992157,0.0,0.0,0.0,0.0,0.0,0.0
1769121347.660228,nan,nan,nan,-0.21750628933344787,2.317777812437541,9.344571742992157,0.0,0.0,0.0,0.0,0.0,0.0
1769121347.6734376,nan,nan,nan,-0.21750628933344787,2.317777812437541,9.344571742992157,0.0,0.0,0.0,0.0,0.0,0.0
1769121347.6849911,nan,nan,nan,-0.21750628933344787,2.317777812437541,9.344571742992157,0.0,0.0,0.0,0.0,0.0,0.0
1769121347.6973147,nan,nan,nan,-0.21750628933344787,2.317777812437541,9.344571742992157,0.0,0.0,0.0,0.0,0.0,0.0
1769121347.7109952,nan,nan,nan,-0.21750628933344787,2.317777812437541,9.344571742992157,0.0,0.0,0.0,0.0,0.0,0.0
1769121347.728556,nan,nan,nan,-0.21750628933344787,2.317777812437541,9.344571742992157,0.0,0.0,0.0,0.0,0.0,0.0
1769121347.747124,nan,nan,nan,-0.21750628933344787,2.317777812437541,9.344571742992157,0.0,0.0,0.0,0.0,0.0,0.0
1769121347.761413,nan,nan,nan,-0.21750628933344787,2.317777812437541,9.344571742992157,0.0,0.0,0.0,0.0,0.0,0.0
1769121347.7727296,nan,nan,nan,-0.21750628933344787,2.317777812437541,9.344571742992157,0.0,0.0,0.0,0.0,0.0,0.0
1769121347.7866588,nan,nan,nan,-0.21750628933344787,2.317777812437541,9.344571742992157,0.0,0.0,0.0,0.0,0.0,0.0
1769121347.8008256,nan,nan,nan,-0.21750628933344787,2.317777812437541,9.344571742992157,0.0,0.0,0.0,0.0,0.0,0.0
1769121347.8157096,nan,nan,nan,-0.21750628933344787,2.317777812437541,9.344571742992157,0.0,0.0,0.0,0.0,0.0,0.0
1769121347.8294861,nan,nan,nan,-0.21750628933344787,2.317777812437541,9.344571742992157,0.0,0.0,0.0,0.0,0.0,0.0
1769121347.8412747,nan,nan,nan,-0.21750628933344787,2.317777812437541,9.344571742992157,0.0,0.0,0.0,0.0,0.0,0.0
1769121347.859227,nan,nan,nan,-0.21750628933344787,2.317777812437541,9.344571742992157,0.0,0.0,0.0,0.0,0.0,0.0
1769121347.8740306,nan,nan,nan,-0.21750628933344787,2.317777812437541,9.344571742992157,0.0,0.0,0.0,0.0,0.0,0.0
1769121347.8871334,nan,nan,nan,-0.21750628933344787,2.317777812437541,9.344571742992157,0.0,0.0,0.0,0.0,0.0,0.0
1769121347.9058678,nan,nan,nan,-0.21750628933344787,2.317777812437541,9.344571742992157,0.0,0.0,0.0,0.0,0.0,0.0
1769121347.918966,nan,nan,nan,-0.21750628933344787,2.317777812437541,9.344571742992157,0.0,0.0,0.0,0.0,0.0,0.0
1769121347.9404454,nan,nan,nan,-0.21750628933344787,2.317777812437541,9.344571742992157,0.0,0.0,0.0,0.0,0.0,0.0
1769121347.9619017,nan,nan,nan,-0.21750628933344787,2.317777812437541,9.344571742992157,0.0,0.0,0.0,0.0,0.0,0.0
1769121347.9772012,nan,nan,nan,-0.21750628933344787,2.317777812437541,9.344571742992157,0.0,0.0,0.0,0.0,0.0,0.0
1769121347.9964943,nan,nan,nan,-0.21750628933344787,2.317777812437541,9.344571742992157,0.0,0.0,0.0,0.0,0.0,0.0
1769121348.0136125,nan,nan,nan,-0.21750628933344787,2.317777812437541,9.344571742992157,0.0,0.0,0.0,0.0,0.0,0.0
1769121348.0283287,nan,nan,nan,-0.21750628933344787,2.317777812437541,9.344571742992157,0.0,0.0,0.0,0.0,0.0,0.0
1769121348.0483043,nan,nan,nan,-0.21750628933344787,2.317777812437541,9.344571742992157,0.0,0.0,0.0,0.0,0.0,0.0
1769121348.0621476,nan,nan,nan,-0.21750628933344787,2.317777812437541,9.344571742992157,0.0,0.0,0.0,0.0,0.0,0.0
1769121348.0768113,nan,nan,nan,-0.21750628933344787,2.317777812437541,9.344571742992157,0.0,0.0,0.0,0.0,0.0,0.0
1769121348.0919547,nan,nan,nan,-0.21750628933344787,2.317777812437541,9.344571742992157,0.0,0.0,0.0,0.0,0.0,0.0
1769121348.1085973,nan,nan,nan,-0.21750628933344787,2.317777812437541,9.344571742992157,0.0,0.0,0.0,0.0,0.0,0.0
1769121348.1249433,nan,nan,nan,-0.21750628933344787,2.317777812437541,9.344571742992157,0.0,0.0,0.0,0.0,0.0,0.0
1769121348.138303,nan,nan,nan,-0.21750628933344787,2.317777812437541,9.344571742992157,0.0,0.0,0.0,0.0,0.0,0.0
1769121348.156993,nan,nan,nan,-0.21750628933344787,2.317777812437541,9.344571742992157,0.0,0.0,0.0,0.0,0.0,0.0
1769121348.1709893,nan,nan,nan,-0.21750628933344787,2.317777812437541,9.344571742992157,0.0,0.0,0.0,0.0,0.0,0.0
1769121348.1840122,nan,nan,nan,-0.21750628933344787,2.317777812437541,9.344571742992157,0.0,0.0,0.0,0.0,0.0,0.0
1769121348.1971169,nan,nan,nan,-0.21750628933344787,2.317777812437541,9.344571742992157,0.0,0.0,0.0,0.0,0.0,0.0
1769121348.2093005,nan,nan,nan,-0.21750628933344787,2.317777812437541,9.344571742992157,0.0,0.0,0.0,0.0,0.0,0.0
1769121348.2221901,nan,nan,nan,-0.21750628933344787,2.317777812437541,9.344571742992157,0.0,0.0,0.0,0.0,0.0,0.0
1769121348.2353783,nan,nan,nan,-0.21750628933344787,2.317777812437541,9.344571742992157,0.0,0.0,0.0,0.0,0.0,0.0
1769121348.2537253,nan,nan,nan,-0.21750628933344787,2.317777812437541,9.344571742992157,0.0,0.0,0.0,0.0,0.0,0.0
1769121348.2669666,nan,nan,nan,-0.21750628933344787,2.317777812437541,9.344571742992157,0.0,0.0,0.0,0.0,0.0,0.0
1769121348.281713,nan,nan,nan,-0.21750628933344787,2.317777812437541,9.344571742992157,0.0,0.0,0.0,0.0,0.0,0.0
1769121348.2952256,nan,nan,nan,-0.21750628933344787,2.317777812437541,9.344571742992157,0.0,0.0,0.0,0.0,0.0,0.0
1769121348.3096166,nan,nan,nan,-0.21750628933344787,2.317777812437541,9.344571742992157,0.0,0.0,0.0,0.0,0.0,0.0
1769121348.3236992,nan,nan,nan,-0.21750628933344787,2.317777812437541,9.344571742992157,0.0,0.0,0.0,0.0,0.0,0.0
1769121348.336097,nan,nan,nan,-0.21750628933344787,2.317777812437541,9.344571742992157,0.0,0.0,0.0,0.0,0.0,0.0
1769121348.3496003,nan,nan,nan,-0.21750628933344787,2.317777812437541,9.344571742992157,0.0,0.0,0.0,0.0,0.0,0.0
1769121348.3731005,nan,nan,nan,-0.21750628933344787,2.317777812437541,9.344571742992157,0.0,0.0,0.0,0.0,0.0,0.0
1769121348.3905644,nan,nan,nan,-0.21750628933344787,2.317777812437541,9.344571742992157,0.0,0.0,0.0,0.0,0.0,0.0
1769121348.4053571,nan,nan,nan,-0.21750628933344787,2.317777812437541,9.344571742992157,0.0,0.0,0.0,0.0,0.0,0.0
1769121348.4211736,nan,nan,nan,-0.21750628933344787,2.317777812437541,9.344571742992157,0.0,0.0,0.0,0.0,0.0,0.0
1769121348.4375732,nan,nan,nan,-0.21750628933344787,2.317777812437541,9.344571742992157,0.0,0.0,0.0,0.0,0.0,0.0
1769121348.4517376,nan,nan,nan,-0.21750628933344787,2.317777812437541,9.344571742992157,0.0,0.0,0.0,0.0,0.0,0.0
1769121348.472655,nan,nan,nan,-0.21750628933344787,2.317777812437541,9.344571742992157,0.0,0.0,0.0,0.0,0.0,0.0
1769121348.49523,nan,nan,nan,-0.21750628933344787,2.317777812437541,9.344571742992157,0.0,0.0,0.0,0.0,0.0,0.0
1769121348.5081162,nan,nan,nan,-0.21750628933344787,2.317777812437541,9.344571742992157,0.0,0.0,0.0,0.0,0.0,0.0
1769121348.5222716,nan,nan,nan,-0.21750628933344787,2.317777812437541,9.344571742992157,0.0,0.0,0.0,0.0,0.0,0.0
1769121348.53908,nan,nan,nan,-0.21750628933344787,2.317777812437541,9.344571742992157,0.0,0.0,0.0,0.0,0.0,0.0
1769121348.5754054,nan,nan,nan,-0.21750628933344787,2.317777812437541,9.344571742992157,0.0,0.0,0.0,0.0,0.0,0.0
1769121348.5883586,nan,nan,nan,-0.21750628933344787,2.317777812437541,9.344571742992157,0.0,0.0,0.0,0.0,0.0,0.0
1769121348.6034226,nan,nan,nan,-0.21750628933344787,2.317777812437541,9.344571742992157,0.0,0.0,0.0,0.0,0.0,0.0
1769121348.6164455,nan,nan,nan,-0.21750628933344787,2.317777812437541,9.344571742992157,0.0,0.0,0.0,0.0,0.0,0.0
1769121348.6304948,nan,nan,nan,-0.21750628933344787,2.317777812437541,9.344571742992157,0.0,0.0,0.0,0.0,0.0,0.0
1769121348.6442115,nan,nan,nan,-0.21750628933344787,2.317777812437541,9.344571742992157,0.0,0.0,0.0,0.0,0.0,0.0
1769121348.6576328,nan,nan,nan,-0.21750628933344787,2.317777812437541,9.344571742992157,0.0,0.0,0.0,0.0,0.0,0.0
1769121348.6771588,nan,nan,nan,-0.21750628933344787,2.317777812437541,9.344571742992157,0.0,0.0,0.0,0.0,0.0,0.0
1769121348.6949537,nan,nan,nan,-0.21750628933344787,2.317777812437541,9.344571742992157,0.0,0.0,0.0,0.0,0.0,0.0
1769121348.71251,nan,nan,nan,-0.21750628933344787,2.317777812437541,9.344571742992157,0.0,0.0,0.0,0.0,0.0,0.0
1769121348.7315693,nan,nan,nan,-0.21750628933344787,2.317777812437541,9.344571742992157,0.0,0.0,0.0,0.0,0.0,0.0
1769121348.7526443,nan,nan,nan,-0.21750628933344787,2.317777812437541,9.344571742992157,0.0,0.0,0.0,0.0,0.0,0.0
1769121348.7709732,nan,nan,nan,-0.21750628933344787,2.317777812437541,9.344571742992157,0.0,0.0,0.0,0.0,0.0,0.0
1769121348.7861283,nan,nan,nan,-0.21750628933344787,2.317777812437541,9.344571742992157,0.0,0.0,0.0,0.0,0.0,0.0
1769121348.801683,nan,nan,nan,-0.21750628933344787,2.317777812437541,9.344571742992157,0.0,0.0,0.0,0.0,0.0,0.0
1769121348.8173976,nan,nan,nan,-0.21750628933344787,2.317777812437541,9.344571742992157,0.0,0.0,0.0,0.0,0.0,0.0
1769121348.8333676,nan,nan,nan,-0.21750628933344787,2.317777812437541,9.344571742992157,0.0,0.0,0.0,0.0,0.0,0.0
1769121348.8531754,nan,nan,nan,-0.21750628933344787,2.317777812437541,9.344571742992157,0.0,0.0,0.0,0.0,0.0,0.0
1769121348.8818204,nan,nan,nan,-0.21750628933344787,2.317777812437541,9.344571742992157,0.0,0.0,0.0,0.0,0.0,0.0
1769121348.89995,nan,nan,nan,-0.21750628933344787,2.317777812437541,9.344571742992157,0.0,0.0,0.0,0.0,0.0,0.0
1769121348.9233153,nan,nan,nan,-0.21750628933344787,2.317777812437541,9.344571742992157,0.0,0.0,0.0,0.0,0.0,0.0
1769121348.9459884,nan,nan,nan,-0.21750628933344787,2.317777812437541,9.344571742992157,0.0,0.0,0.0,0.0,0.0,0.0
1769121348.971364,nan,nan,nan,-0.21750628933344787,2.317777812437541,9.344571742992157,0.0,0.0,0.0,0.0,0.0,0.0
1769121348.994367,nan,nan,nan,-0.21750628933344787,2.317777812437541,9.344571742992157,0.0,0.0,0.0,0.0,0.0,0.0
1769121349.0074546,nan,nan,nan,-0.21750628933344787,2.317777812437541,9.344571742992157,0.0,0.0,0.0,0.0,0.0,0.0
1769121349.0248113,nan,nan,nan,-0.21750628933344787,2.317777812437541,9.344571742992157,0.0,0.0,0.0,0.0,0.0,0.0
1769121349.0380933,nan,nan,nan,-0.21750628933344787,2.317777812437541,9.344571742992157,0.0,0.0,0.0,0.0,0.0,0.0
1769121349.0512686,nan,nan,nan,-0.21750628933344787,2.317777812437541,9.344571742992157,0.0,0.0,0.0,0.0,0.0,0.0
1769121349.0640135,nan,nan,nan,-0.21750628933344787,2.317777812437541,9.344571742992157,0.0,0.0,0.0,0.0,0.0,0.0
1769121349.0834193,nan,nan,nan,-0.21750628933344787,2.317777812437541,9.344571742992157,0.0,0.0,0.0,0.0,0.0,0.0
1769121349.101959,nan,nan,nan,-0.21750628933344787,2.317777812437541,9.344571742992157,0.0,0.0,0.0,0.0,0.0,0.0
1769121349.1194222,nan,nan,nan,-0.21750628933344787,2.317777812437541,9.344571742992157,0.0,0.0,0.0,0.0,0.0,0.0
1769121349.1336217,nan,nan,nan,-0.21750628933344787,2.317777812437541,9.344571742992157,0.0,0.0,0.0,0.0,0.0,0.0
1769121349.1462774,nan,nan,nan,-0.21750628933344787,2.317777812437541,9.344571742992157,0.0,0.0,0.0,0.0,0.0,0.0
1769121349.1590285,nan,nan,nan,-0.21750628933344787,2.317777812437541,9.344571742992157,0.0,0.0,0.0,0.0,0.0,0.0
1769121349.182462,nan,nan,nan,-0.21750628933344787,2.317777812437541,9.344571742992157,0.0,0.0,0.0,0.0,0.0,0.0
1769121349.1975708,nan,nan,nan,-0.21750628933344787,2.317777812437541,9.344571742992157,0.0,0.0,0.0,0.0,0.0,0.0
1769121349.2108135,nan,nan,nan,-0.21750628933344787,2.317777812437541,9.344571742992157,0.0,0.0,0.0,0.0,0.0,0.0
1769121349.224337,nan,nan,nan,-0.21750628933344787,2.317777812437541,9.344571742992157,0.0,0.0,0.0,0.0,0.0,0.0
1769121349.2383072,nan,nan,nan,-0.21750628933344787,2.317777812437541,9.344571742992157,0.0,0.0,0.0,0.0,0.0,0.0
1769121349.2507718,nan,nan,nan,-0.21750628933344787,2.317777812437541,9.344571742992157,0.0,0.0,0.0,0.0,0.0,0.0
1769121349.2627683,nan,nan,nan,-0.21750628933344787,2.317777812437541,9.344571742992157,0.0,0.0,0.0,0.0,0.0,0.0
1769121349.2750213,nan,nan,nan,-0.21750628933344787,2.317777812437541,9.344571742992157,0.0,0.0,0.0,0.0,0.0,0.0
1769121349.288433,nan,nan,nan,-0.21750628933344787,2.317777812437541,9.344571742992157,0.0,0.0,0.0,0.0,0.0,0.0
1769121349.3014266,nan,nan,nan,-0.21750628933344787,2.317777812437541,9.344571742992157,0.0,0.0,0.0,0.0,0.0,0.0
1769121349.313445,nan,nan,nan,-0.21750628933344787,2.317777812437541,9.344571742992157,0.0,0.0,0.0,0.0,0.0,0.0
1769121349.3254757,nan,nan,nan,-0.21750628933344787,2.317777812437541,9.344571742992157,0.0,0.0,0.0,0.0,0.0,0.0
1769121349.3377316,nan,nan,nan,-0.21750628933344787,2.317777812437541,9.344571742992157,0.0,0.0,0.0,0.0,0.0,0.0
1769121349.3517544,nan,nan,nan,-0.21750628933344787,2.317777812437541,9.344571742992157,0.0,0.0,0.0,0.0,0.0,0.0
1769121349.3644063,nan,nan,nan,-0.21750628933344787,2.317777812437541,9.344571742992157,0.0,0.0,0.0,0.0,0.0,0.0
1769121349.382212,nan,nan,nan,-0.21750628933344787,2.317777812437541,9.344571742992157,0.0,0.0,0.0,0.0,0.0,0.0
1769121349.3967915,nan,nan,nan,-0.21750628933344787,2.317777812437541,9.344571742992157,0.0,0.0,0.0,0.0,0.0,0.0
1769121349.4140482,nan,nan,nan,-0.21750628933344787,2.317777812437541,9.344571742992157,0.0,0.0,0.0,0.0,0.0,0.0
1769121349.4308217,nan,nan,nan,-0.21750628933344787,2.317777812437541,9.344571742992157,0.0,0.0,0.0,0.0,0.0,0.0
1769121349.4458458,nan,nan,nan,-0.21750628933344787,2.317777812437541,9.344571742992157,0.0,0.0,0.0,0.0,0.0,0.0
1769121349.463208,nan,nan,nan,-0.21750628933344787,2.317777812437541,9.344571742992157,0.0,0.0,0.0,0.0,0.0,0.0
1769121349.4785688,nan,nan,nan,-0.21750628933344787,2.317777812437541,9.344571742992157,0.0,0.0,0.0,0.0,0.0,0.0
1769121349.5005476,nan,nan,nan,-0.21750628933344787,2.317777812437541,9.344571742992157,0.0,0.0,0.0,0.0,0.0,0.0
1769121349.5149667,nan,nan,nan,-0.21750628933344787,2.317777812437541,9.344571742992157,0.0,0.0,0.0,0.0,0.0,0.0
1769121349.5328543,nan,nan,nan,-0.21750628933344787,2.317777812437541,9.344571742992157,0.0,0.0,0.0,0.0,0.0,0.0
1769121349.5498025,nan,nan,nan,-0.21750628933344787,2.317777812437541,9.344571742992157,0.0,0.0,0.0,0.0,0.0,0.0
1769121349.5650282,nan,nan,nan,-0.21750628933344787,2.317777812437541,9.344571742992157,0.0,0.0,0.0,0.0,0.0,0.0
1769121349.5787208,nan,nan,nan,-0.21750628933344787,2.317777812437541,9.344571742992157,0.0,0.0,0.0,0.0,0.0,0.0
1769121349.5995412,nan,nan,nan,-0.21750628933344787,2.317777812437541,9.344571742992157,0.0,0.0,0.0,0.0,0.0,0.0
1769121349.6167707,nan,nan,nan,-0.21750628933344787,2.317777812437541,9.344571742992157,0.0,0.0,0.0,0.0,0.0,0.0
1769121349.6352065,nan,nan,nan,-0.21750628933344787,2.317777812437541,9.344571742992157,0.0,0.0,0.0,0.0,0.0,0.0
1769121349.6564262,nan,nan,nan,-0.21750628933344787,2.317777812437541,9.344571742992157,0.0,0.0,0.0,0.0,0.0,0.0
1769121349.6798017,nan,nan,nan,-0.21750628933344787,2.317777812437541,9.344571742992157,0.0,0.0,0.0,0.0,0.0,0.0
1769121349.7131171,nan,nan,nan,-0.21750628933344787,2.317777812437541,9.344571742992157,0.0,0.0,0.0,0.0,0.0,0.0
1769121349.7310715,nan,nan,nan,-0.21750628933344787,2.317777812437541,9.344571742992157,0.0,0.0,0.0,0.0,0.0,0.0
1769121349.7465332,nan,nan,nan,-0.21750628933344787,2.317777812437541,9.344571742992157,0.0,0.0,0.0,0.0,0.0,0.0
1769121349.7840965,nan,nan,nan,-0.21750628933344787,2.317777812437541,9.344571742992157,0.0,0.0,0.0,0.0,0.0,0.0
1769121349.8118687,nan,nan,nan,-0.21750628933344787,2.317777812437541,9.344571742992157,0.0,0.0,0.0,0.0,0.0,0.0
1769121349.8540206,nan,nan,nan,-0.21750628933344787,2.317777812437541,9.344571742992157,0.0,0.0,0.0,0.0,0.0,0.0
1769121349.8931644,nan,nan,nan,-0.21750628933344787,2.317777812437541,9.344571742992157,0.0,0.0,0.0,0.0,0.0,0.0
1769121349.9403267,nan,nan,nan,-0.21750628933344787,2.317777812437541,9.344571742992157,0.0,0.0,0.0,0.0,0.0,0.0
1769121349.9594266,nan,nan,nan,-0.21750628933344787,2.317777812437541,9.344571742992157,0.0,0.0,0.0,0.0,0.0,0.0
1769121349.9801562,nan,nan,nan,-0.21750628933344787,2.317777812437541,9.344571742992157,0.0,0.0,0.0,0.0,0.0,0.0
1769121350.0084507,nan,nan,nan,-0.21750628933344787,2.317777812437541,9.344571742992157,0.0,0.0,0.0,0.0,0.0,0.0
1769121350.0338573,nan,nan,nan,-0.21750628933344787,2.317777812437541,9.344571742992157,0.0,0.0,0.0,0.0,0.0,0.0
1769121350.0715575,nan,nan,nan,-0.21750628933344787,2.317777812437541,9.344571742992157,0.0,0.0,0.0,0.0,0.0,0.0
1769121350.104083,nan,nan,nan,-0.21750628933344787,2.317777812437541,9.344571742992157,0.0,0.0,0.0,0.0,0.0,0.0
1769121350.13347,nan,nan,nan,-0.21750628933344787,2.317777812437541,9.344571742992157,0.0,0.0,0.0,0.0,0.0,0.0
1769121350.156141,nan,nan,nan,-0.21750628933344787,2.317777812437541,9.344571742992157,0.0,0.0,0.0,0.0,0.0,0.0
1769121350.1792903,nan,nan,nan,-0.21750628933344787,2.317777812437541,9.344571742992157,0.0,0.0,0.0,0.0,0.0,0.0
1769121350.196532,nan,nan,nan,-0.21750628933344787,2.317777812437541,9.344571742992157,0.0,0.0,0.0,0.0,0.0,0.0
1769121350.2124414,nan,nan,nan,-0.21750628933344787,2.317777812437541,9.344571742992157,0.0,0.0,0.0,0.0,0.0,0.0
1769121350.2276816,nan,nan,nan,-0.21750628933344787,2.317777812437541,9.344571742992157,0.0,0.0,0.0,0.0,0.0,0.0
1769121350.2433248,nan,nan,nan,-0.21750628933344787,2.317777812437541,9.344571742992157,0.0,0.0,0.0,0.0,0.0,0.0
1769121350.2621524,nan,nan,nan,-0.21750628933344787,2.317777812437541,9.344571742992157,0.0,0.0,0.0,0.0,0.0,0.0
1769121350.2749429,nan,nan,nan,-0.21750628933344787,2.317777812437541,9.344571742992157,0.0,0.0,0.0,0.0,0.0,0.0
1769121350.2880676,nan,nan,nan,-0.21750628933344787,2.317777812437541,9.344571742992157,0.0,0.0,0.0,0.0,0.0,0.0
1769121350.3016696,nan,nan,nan,-0.21750628933344787,2.317777812437541,9.344571742992157,0.0,0.0,0.0,0.0,0.0,0.0
1769121350.316976,nan,nan,nan,-0.21750628933344787,2.317777812437541,9.344571742992157,0.0,0.0,0.0,0.0,0.0,0.0
1769121350.3400776,nan,nan,nan,-0.21750628933344787,2.317777812437541,9.344571742992157,0.0,0.0,0.0,0.0,0.0,0.0
1769121350.35848,nan,nan,nan,-0.21750628933344787,2.317777812437541,9.344571742992157,0.0,0.0,0.0,0.0,0.0,0.0
1769121350.3746336,nan,nan,nan,-0.21750628933344787,2.317777812437541,9.344571742992157,0.0,0.0,0.0,0.0,0.0,0.0
1769121350.402677,nan,nan,nan,-0.21750628933344787,2.317777812437541,9.344571742992157,0.0,0.0,0.0,0.0,0.0,0.0
1769121350.4259832,nan,nan,nan,-0.21750628933344787,2.317777812437541,9.344571742992157,0.0,0.0,0.0,0.0,0.0,0.0
1769121350.4468358,nan,nan,nan,-0.21750628933344787,2.317777812437541,9.344571742992157,0.0,0.0,0.0,0.0,0.0,0.0
1769121350.4722643,nan,nan,nan,-0.21750628933344787,2.317777812437541,9.344571742992157,0.0,0.0,0.0,0.0,0.0,0.0
1769121350.4980023,nan,nan,nan,-0.21750628933344787,2.317777812437541,9.344571742992157,0.0,0.0,0.0,0.0,0.0,0.0
1769121350.53899,nan,nan,nan,-0.21750628933344787,2.317777812437541,9.344571742992157,0.0,0.0,0.0,0.0,0.0,0.0
1769121350.5670452,nan,nan,nan,-0.21750628933344787,2.317777812437541,9.344571742992157,0.0,0.0,0.0,0.0,0.0,0.0
1769121350.5875108,nan,nan,nan,-0.21750628933344787,2.317777812437541,9.344571742992157,0.0,0.0,0.0,0.0,0.0,0.0
1769121350.6078699,nan,nan,nan,-0.21750628933344787,2.317777812437541,9.344571742992157,0.0,0.0,0.0,0.0,0.0,0.0
1769121350.6244352,nan,nan,nan,-0.21750628933344787,2.317777812437541,9.344571742992157,0.0,0.0,0.0,0.0,0.0,0.0
1769121350.64502,nan,nan,nan,-0.21750628933344787,2.317777812437541,9.344571742992157,0.0,0.0,0.0,0.0,0.0,0.0
1769121350.663571,nan,nan,nan,-0.21750628933344787,2.317777812437541,9.344571742992157,0.0,0.0,0.0,0.0,0.0,0.0
1769121350.6794648,nan,nan,nan,-0.21750628933344787,2.317777812437541,9.344571742992157,0.0,0.0,0.0,0.0,0.0,0.0
1769121350.7033234,nan,nan,nan,-0.21750628933344787,2.317777812437541,9.344571742992157,0.0,0.0,0.0,0.0,0.0,0.0
1769121350.7237892,nan,nan,nan,-0.21750628933344787,2.317777812437541,9.344571742992157,0.0,0.0,0.0,0.0,0.0,0.0
1769121350.7426622,nan,nan,nan,-0.21750628933344787,2.317777812437541,9.344571742992157,0.0,0.0,0.0,0.0,0.0,0.0
1769121350.7664266,nan,nan,nan,-0.21750628933344787,2.317777812437541,9.344571742992157,0.0,0.0,0.0,0.0,0.0,0.0
1769121350.7885802,nan,nan,nan,-0.21750628933344787,2.317777812437541,9.344571742992157,0.0,0.0,0.0,0.0,0.0,0.0
1769121350.8123007,nan,nan,nan,-0.21750628933344787,2.317777812437541,9.344571742992157,0.0,0.0,0.0,0.0,0.0,0.0
1769121350.8267748,nan,nan,nan,-0.21750628933344787,2.317777812437541,9.344571742992157,0.0,0.0,0.0,0.0,0.0,0.0
1769121350.8497431,nan,nan,nan,-0.21750628933344787,2.317777812437541,9.344571742992157,0.0,0.0,0.0,0.0,0.0,0.0
1769121350.8683188,nan,nan,nan,-0.21750628933344787,2.317777812437541,9.344571742992157,0.0,0.0,0.0,0.0,0.0,0.0
1769121350.8882108,nan,nan,nan,-0.21750628933344787,2.317777812437541,9.344571742992157,0.0,0.0,0.0,0.0,0.0,0.0
1769121350.9045887,nan,nan,nan,-0.21750628933344787,2.317777812437541,9.344571742992157,0.0,0.0,0.0,0.0,0.0,0.0
1769121350.9184413,nan,nan,nan,-0.21750628933344787,2.317777812437541,9.344571742992157,0.0,0.0,0.0,0.0,0.0,0.0
1769121350.946232,nan,nan,nan,-0.21750628933344787,2.317777812437541,9.344571742992157,0.0,0.0,0.0,0.0,0.0,0.0
1769121350.9638288,nan,nan,nan,-0.21750628933344787,2.317777812437541,9.344571742992157,0.0,0.0,0.0,0.0,0.0,0.0
1769121350.985412,nan,nan,nan,-0.21750628933344787,2.317777812437541,9.344571742992157,0.0,0.0,0.0,0.0,0.0,0.0
1769121350.9996846,nan,nan,nan,-0.21750628933344787,2.317777812437541,9.344571742992157,0.0,0.0,0.0,0.0,0.0,0.0
1769121351.0272577,nan,nan,nan,-0.21750628933344787,2.317777812437541,9.344571742992157,0.0,0.0,0.0,0.0,0.0,0.0
1769121351.04979,nan,nan,nan,-0.21750628933344787,2.317777812437541,9.344571742992157,0.0,0.0,0.0,0.0,0.0,0.0
1769121351.0922735,nan,nan,nan,-0.21750628933344787,2.317777812437541,9.344571742992157,0.0,0.0,0.0,0.0,0.0,0.0
1769121351.1075463,nan,nan,nan,-0.21750628933344787,2.317777812437541,9.344571742992157,0.0,0.0,0.0,0.0,0.0,0.0
1769121351.1636643,nan,nan,nan,-0.21750628933344787,2.317777812437541,9.344571742992157,0.0,0.0,0.0,0.0,0.0,0.0
1769121351.180319,nan,nan,nan,-0.21750628933344787,2.317777812437541,9.344571742992157,0.0,0.0,0.0,0.0,0.0,0.0
1769121351.215456,nan,nan,nan,-0.21750628933344787,2.317777812437541,9.344571742992157,0.0,0.0,0.0,0.0,0.0,0.0
1769121351.2439015,nan,nan,nan,-0.21750628933344787,2.317777812437541,9.344571742992157,0.0,0.0,0.0,0.0,0.0,0.0
1769121351.2650828,nan,nan,nan,-0.21750628933344787,2.317777812437541,9.344571742992157,0.0,0.0,0.0,0.0,0.0,0.0
1769121351.2984576,nan,nan,nan,-0.21750628933344787,2.317777812437541,9.344571742992157,0.0,0.0,0.0,0.0,0.0,0.0
1769121351.3570635,nan,nan,nan,-0.21750628933344787,2.317777812437541,9.344571742992157,0.0,0.0,0.0,0.0,0.0,0.0
1769121351.3726292,nan,nan,nan,-0.21750628933344787,2.317777812437541,9.344571742992157,0.0,0.0,0.0,0.0,0.0,0.0
1769121351.427235,nan,nan,nan,-0.21750628933344787,2.317777812437541,9.344571742992157,0.0,0.0,0.0,0.0,0.0,0.0
1769121351.4483469,nan,nan,nan,-0.21750628933344787,2.317777812437541,9.344571742992157,0.0,0.0,0.0,0.0,0.0,0.0
1769121351.4640448,nan,nan,nan,-0.21750628933344787,2.317777812437541,9.344571742992157,0.0,0.0,0.0,0.0,0.0,0.0
1769121351.4795659,nan,nan,nan,-0.21750628933344787,2.317777812437541,9.344571742992157,0.0,0.0,0.0,0.0,0.0,0.0
1769121351.5095751,nan,nan,nan,-0.21750628933344787,2.317777812437541,9.344571742992157,0.0,0.0,0.0,0.0,0.0,0.0
1769121351.5333967,nan,nan,nan,-0.21750628933344787,2.317777812437541,9.344571742992157,0.0,0.0,0.0,0.0,0.0,0.0
1769121351.564194,nan,nan,nan,-0.21750628933344787,2.317777812437541,9.344571742992157,0.0,0.0,0.0,0.0,0.0,0.0
1769121351.5943396,nan,nan,nan,-0.21750628933344787,2.317777812437541,9.344571742992157,0.0,0.0,0.0,0.0,0.0,0.0
1769121351.6257982,nan,nan,nan,-0.21750628933344787,2.317777812437541,9.344571742992157,0.0,0.0,0.0,0.0,0.0,0.0
1769121351.6527638,nan,nan,nan,-0.21750628933344787,2.317777812437541,9.344571742992157,0.0,0.0,0.0,0.0,0.0,0.0
1769121351.6821427,nan,nan,nan,-0.21750628933344787,2.317777812437541,9.344571742992157,0.0,0.0,0.0,0.0,0.0,0.0
1769121351.6991887,nan,nan,nan,-0.21750628933344787,2.317777812437541,9.344571742992157,0.0,0.0,0.0,0.0,0.0,0.0
1769121351.7183144,nan,nan,nan,-0.21750628933344787,2.317777812437541,9.344571742992157,0.0,0.0,0.0,0.0,0.0,0.0
1769121351.7369778,nan,nan,nan,-0.21750628933344787,2.317777812437541,9.344571742992157,0.0,0.0,0.0,0.0,0.0,0.0
1769121351.755697,nan,nan,nan,-0.21750628933344787,2.317777812437541,9.344571742992157,0.0,0.0,0.0,0.0,0.0,0.0
1769121351.7802413,nan,nan,nan,-0.21750628933344787,2.317777812437541,9.344571742992157,0.0,0.0,0.0,0.0,0.0,0.0
1769121351.8162045,nan,nan,nan,-0.21750628933344787,2.317777812437541,9.344571742992157,0.0,0.0,0.0,0.0,0.0,0.0
1769121351.8328743,nan,nan,nan,-0.21750628933344787,2.317777812437541,9.344571742992157,0.0,0.0,0.0,0.0,0.0,0.0
1769121351.8749917,nan,nan,nan,-0.21750628933344787,2.317777812437541,9.344571742992157,0.0,0.0,0.0,0.0,0.0,0.0
1769121351.9060545,nan,nan,nan,-0.21750628933344787,2.317777812437541,9.344571742992157,0.0,0.0,0.0,0.0,0.0,0.0
1769121351.9371932,nan,nan,nan,-0.21750628933344787,2.317777812437541,9.344571742992157,0.0,0.0,0.0,0.0,0.0,0.0
1769121351.9654295,nan,nan,nan,-0.21750628933344787,2.317777812437541,9.344571742992157,0.0,0.0,0.0,0.0,0.0,0.0
1769121351.9932284,nan,nan,nan,-0.21750628933344787,2.317777812437541,9.344571742992157,0.0,0.0,0.0,0.0,0.0,0.0
1769121352.0301683,nan,nan,nan,-0.21750628933344787,2.317777812437541,9.344571742992157,0.0,0.0,0.0,0.0,0.0,0.0
1769121352.061899,nan,nan,nan,-0.21750628933344787,2.317777812437541,9.344571742992157,0.0,0.0,0.0,0.0,0.0,0.0
1769121352.0783892,nan,nan,nan,-0.21750628933344787,2.317777812437541,9.344571742992157,0.0,0.0,0.0,0.0,0.0,0.0
1769121352.1350086,nan,nan,nan,-0.21750628933344787,2.317777812437541,9.344571742992157,0.0,0.0,0.0,0.0,0.0,0.0
1769121352.1832771,nan,nan,nan,-0.21750628933344787,2.317777812437541,9.344571742992157,0.0,0.0,0.0,0.0,0.0,0.0
1769121352.2172272,nan,nan,nan,-0.21750628933344787,2.317777812437541,9.344571742992157,0.0,0.0,0.0,0.0,0.0,0.0
1769121352.2605946,nan,nan,nan,-0.21750628933344787,2.317777812437541,9.344571742992157,0.0,0.0,0.0,0.0,0.0,0.0
1769121352.2755108,nan,nan,nan,-0.21750628933344787,2.317777812437541,9.344571742992157,0.0,0.0,0.0,0.0,0.0,0.0
1769121352.2956688,nan,nan,nan,-0.21750628933344787,2.317777812437541,9.344571742992157,0.0,0.0,0.0,0.0,0.0,0.0
1769121352.327063,nan,nan,nan,-0.21750628933344787,2.317777812437541,9.344571742992157,0.0,0.0,0.0,0.0,0.0,0.0
1769121352.3485456,nan,nan,nan,-0.21750628933344787,2.317777812437541,9.344571742992157,0.0,0.0,0.0,0.0,0.0,0.0
1769121352.3651826,nan,nan,nan,-0.21750628933344787,2.317777812437541,9.344571742992157,0.0,0.0,0.0,0.0,0.0,0.0
1769121352.4071805,nan,nan,nan,-0.21750628933344787,2.317777812437541,9.344571742992157,0.0,0.0,0.0,0.0,0.0,0.0
1769121352.423502,nan,nan,nan,-0.21750628933344787,2.317777812437541,9.344571742992157,0.0,0.0,0.0,0.0,0.0,0.0
1769121352.4556625,nan,nan,nan,-0.21750628933344787,2.317777812437541,9.344571742992157,0.0,0.0,0.0,0.0,0.0,0.0
1769121352.4741511,nan,nan,nan,-0.21750628933344787,2.317777812437541,9.344571742992157,0.0,0.0,0.0,0.0,0.0,0.0
1769121352.4954634,nan,nan,nan,-0.21750628933344787,2.317777812437541,9.344571742992157,0.0,0.0,0.0,0.0,0.0,0.0
1769121352.5293941,nan,nan,nan,-0.21750628933344787,2.317777812437541,9.344571742992157,0.0,0.0,0.0,0.0,0.0,0.0
1769121352.5520887,nan,nan,nan,-0.21750628933344787,2.317777812437541,9.344571742992157,0.0,0.0,0.0,0.0,0.0,0.0
1769121352.576382,nan,nan,nan,-0.21750628933344787,2.317777812437541,9.344571742992157,0.0,0.0,0.0,0.0,0.0,0.0
1769121352.5960262,nan,nan,nan,-0.21750628933344787,2.317777812437541,9.344571742992157,0.0,0.0,0.0,0.0,0.0,0.0
1769121352.6272552,nan,nan,nan,-0.21750628933344787,2.317777812437541,9.344571742992157,0.0,0.0,0.0,0.0,0.0,0.0
1769121352.659626,nan,nan,nan,-0.21750628933344787,2.317777812437541,9.344571742992157,0.0,0.0,0.0,0.0,0.0,0.0
1769121352.6915867,nan,nan,nan,-0.21750628933344787,2.317777812437541,9.344571742992157,0.0,0.0,0.0,0.0,0.0,0.0
1769121352.717625,nan,nan,nan,-0.21750628933344787,2.317777812437541,9.344571742992157,0.0,0.0,0.0,0.0,0.0,0.0
1769121352.7337735,nan,nan,nan,-0.21750628933344787,2.317777812437541,9.344571742992157,0.0,0.0,0.0,0.0,0.0,0.0
1769121352.760676,nan,nan,nan,-0.21750628933344787,2.317777812437541,9.344571742992157,0.0,0.0,0.0,0.0,0.0,0.0
1769121352.8212702,nan,nan,nan,-0.21750628933344787,2.317777812437541,9.344571742992157,0.0,0.0,0.0,0.0,0.0,0.0
1769121352.8444595,nan,nan,nan,-0.21750628933344787,2.317777812437541,9.344571742992157,0.0,0.0,0.0,0.0,0.0,0.0
1769121352.8731174,nan,nan,nan,-0.21750628933344787,2.317777812437541,9.344571742992157,0.0,0.0,0.0,0.0,0.0,0.0
1769121352.9047892,nan,nan,nan,-0.21750628933344787,2.317777812437541,9.344571742992157,0.0,0.0,0.0,0.0,0.0,0.0
1769121352.9367208,nan,nan,nan,-0.21750628933344787,2.317777812437541,9.344571742992157,0.0,0.0,0.0,0.0,0.0,0.0
1769121352.9565492,nan,nan,nan,-0.21750628933344787,2.317777812437541,9.344571742992157,0.0,0.0,0.0,0.0,0.0,0.0
1769121352.9748888,nan,nan,nan,-0.21750628933344787,2.317777812437541,9.344571742992157,0.0,0.0,0.0,0.0,0.0,0.0
1769121353.001613,nan,nan,nan,-0.21750628933344787,2.317777812437541,9.344571742992157,0.0,0.0,0.0,0.0,0.0,0.0
1769121353.026732,nan,nan,nan,-0.21750628933344787,2.317777812437541,9.344571742992157,0.0,0.0,0.0,0.0,0.0,0.0
1769121353.0453458,nan,nan,nan,-0.21750628933344787,2.317777812437541,9.344571742992157,0.0,0.0,0.0,0.0,0.0,0.0
1769121353.0604303,nan,nan,nan,-0.21750628933344787,2.317777812437541,9.344571742992157,0.0,0.0,0.0,0.0,0.0,0.0
1769121353.0812042,nan,nan,nan,-0.21750628933344787,2.317777812437541,9.344571742992157,0.0,0.0,0.0,0.0,0.0,0.0
1769121353.1056032,nan,nan,nan,-0.21750628933344787,2.317777812437541,9.344571742992157,0.0,0.0,0.0,0.0,0.0,0.0
1769121353.1275132,nan,nan,nan,-0.21750628933344787,2.317777812437541,9.344571742992157,0.0,0.0,0.0,0.0,0.0,0.0
1769121353.152993,nan,nan,nan,-0.21750628933344787,2.317777812437541,9.344571742992157,0.0,0.0,0.0,0.0,0.0,0.0
1769121353.1793919,nan,nan,nan,-0.21750628933344787,2.317777812437541,9.344571742992157,0.0,0.0,0.0,0.0,0.0,0.0
1769121353.2006433,nan,nan,nan,-0.21750628933344787,2.317777812437541,9.344571742992157,0.0,0.0,0.0,0.0,0.0,0.0
1769121353.2368622,nan,nan,nan,-0.21750628933344787,2.317777812437541,9.344571742992157,0.0,0.0,0.0,0.0,0.0,0.0
1769121353.2576587,nan,nan,nan,-0.21750628933344787,2.317777812437541,9.344571742992157,0.0,0.0,0.0,0.0,0.0,0.0
1769121353.2741485,nan,nan,nan,-0.21750628933344787,2.317777812437541,9.344571742992157,0.0,0.0,0.0,0.0,0.0,0.0
1769121353.2965362,nan,nan,nan,-0.21750628933344787,2.317777812437541,9.344571742992157,0.0,0.0,0.0,0.0,0.0,0.0
1769121353.3169065,nan,nan,nan,-0.21750628933344787,2.317777812437541,9.344571742992157,0.0,0.0,0.0,0.0,0.0,0.0
1769121353.3462067,nan,nan,nan,-0.21750628933344787,2.317777812437541,9.344571742992157,0.0,0.0,0.0,0.0,0.0,0.0
1769121353.3614087,nan,nan,nan,-0.21750628933344787,2.317777812437541,9.344571742992157,0.0,0.0,0.0,0.0,0.0,0.0
1769121353.3762999,nan,nan,nan,-0.21750628933344787,2.317777812437541,9.344571742992157,0.0,0.0,0.0,0.0,0.0,0.0
1769121353.3958106,nan,nan,nan,-0.21750628933344787,2.317777812437541,9.344571742992157,0.0,0.0,0.0,0.0,0.0,0.0
1769121353.4212477,nan,nan,nan,-0.21750628933344787,2.317777812437541,9.344571742992157,0.0,0.0,0.0,0.0,0.0,0.0
1769121353.4440536,nan,nan,nan,-0.21750628933344787,2.317777812437541,9.344571742992157,0.0,0.0,0.0,0.0,0.0,0.0
1769121353.4684162,nan,nan,nan,-0.21750628933344787,2.317777812437541,9.344571742992157,0.0,0.0,0.0,0.0,0.0,0.0
1769121353.4859376,nan,nan,nan,-0.21750628933344787,2.317777812437541,9.344571742992157,0.0,0.0,0.0,0.0,0.0,0.0
1769121353.508432,nan,nan,nan,-0.21750628933344787,2.317777812437541,9.344571742992157,0.0,0.0,0.0,0.0,0.0,0.0
1769121353.525665,nan,nan,nan,-0.21750628933344787,2.317777812437541,9.344571742992157,0.0,0.0,0.0,0.0,0.0,0.0
1769121353.5439396,nan,nan,nan,-0.21750628933344787,2.317777812437541,9.344571742992157,0.0,0.0,0.0,0.0,0.0,0.0
1769121353.577351,nan,nan,nan,-0.21750628933344787,2.317777812437541,9.344571742992157,0.0,0.0,0.0,0.0,0.0,0.0
1769121353.5997498,nan,nan,nan,-0.21750628933344787,2.317777812437541,9.344571742992157,0.0,0.0,0.0,0.0,0.0,0.0
1769121353.6354613,nan,nan,nan,-0.21750628933344787,2.317777812437541,9.344571742992157,0.0,0.0,0.0,0.0,0.0,0.0
1769121353.6493034,nan,nan,nan,-0.21750628933344787,2.317777812437541,9.344571742992157,0.0,0.0,0.0,0.0,0.0,0.0
1769121353.6625075,nan,nan,nan,-0.21750628933344787,2.317777812437541,9.344571742992157,0.0,0.0,0.0,0.0,0.0,0.0
1769121353.680613,nan,nan,nan,-0.21750628933344787,2.317777812437541,9.344571742992157,0.0,0.0,0.0,0.0,0.0,0.0
1769121353.709996,nan,nan,nan,-0.21750628933344787,2.317777812437541,9.344571742992157,0.0,0.0,0.0,0.0,0.0,0.0
1769121353.733174,nan,nan,nan,-0.21750628933344787,2.317777812437541,9.344571742992157,0.0,0.0,0.0,0.0,0.0,0.0
1769121353.7544703,nan,nan,nan,-0.21750628933344787,2.317777812437541,9.344571742992157,0.0,0.0,0.0,0.0,0.0,0.0
1769121353.794106,nan,nan,nan,-0.21750628933344787,2.317777812437541,9.344571742992157,0.0,0.0,0.0,0.0,0.0,0.0
1769121353.8381517,nan,nan,nan,-0.21750628933344787,2.317777812437541,9.344571742992157,0.0,0.0,0.0,0.0,0.0,0.0
1769121353.860349,nan,nan,nan,-0.21750628933344787,2.317777812437541,9.344571742992157,0.0,0.0,0.0,0.0,0.0,0.0
1769121353.8946898,nan,nan,nan,-0.21750628933344787,2.317777812437541,9.344571742992157,0.0,0.0,0.0,0.0,0.0,0.0
1769121353.9152663,nan,nan,nan,-0.21750628933344787,2.317777812437541,9.344571742992157,0.0,0.0,0.0,0.0,0.0,0.0
1769121353.9460676,nan,nan,nan,-0.21750628933344787,2.317777812437541,9.344571742992157,0.0,0.0,0.0,0.0,0.0,0.0
1769121353.9860666,nan,nan,nan,-0.21750628933344787,2.317777812437541,9.344571742992157,0.0,0.0,0.0,0.0,0.0,0.0
1769121354.0083451,nan,nan,nan,-0.21750628933344787,2.317777812437541,9.344571742992157,0.0,0.0,0.0,0.0,0.0,0.0
1769121354.029192,nan,nan,nan,-0.21750628933344787,2.317777812437541,9.344571742992157,0.0,0.0,0.0,0.0,0.0,0.0
1769121354.0539644,nan,nan,nan,-0.21750628933344787,2.317777812437541,9.344571742992157,0.0,0.0,0.0,0.0,0.0,0.0
1769121354.0815635,nan,nan,nan,-0.21750628933344787,2.317777812437541,9.344571742992157,0.0,0.0,0.0,0.0,0.0,0.0
1769121354.114256,nan,nan,nan,-0.21750628933344787,2.317777812437541,9.344571742992157,0.0,0.0,0.0,0.0,0.0,0.0
1769121354.144182,nan,nan,nan,-0.21750628933344787,2.317777812437541,9.344571742992157,0.0,0.0,0.0,0.0,0.0,0.0
1769121354.175122,nan,nan,nan,-0.21750628933344787,2.317777812437541,9.344571742992157,0.0,0.0,0.0,0.0,0.0,0.0
1769121354.2035973,nan,nan,nan,-0.21750628933344787,2.317777812437541,9.344571742992157,0.0,0.0,0.0,0.0,0.0,0.0
1769121354.2257047,nan,nan,nan,-0.21750628933344787,2.317777812437541,9.344571742992157,0.0,0.0,0.0,0.0,0.0,0.0
1769121354.2595704,nan,nan,nan,-0.21750628933344787,2.317777812437541,9.344571742992157,0.0,0.0,0.0,0.0,0.0,0.0
1769121354.299323,nan,nan,nan,-0.21750628933344787,2.317777812437541,9.344571742992157,0.0,0.0,0.0,0.0,0.0,0.0
1769121354.3201976,nan,nan,nan,-0.21750628933344787,2.317777812437541,9.344571742992157,0.0,0.0,0.0,0.0,0.0,0.0
1769121354.3479247,nan,nan,nan,-0.21750628933344787,2.317777812437541,9.344571742992157,0.0,0.0,0.0,0.0,0.0,0.0
1769121354.4246526,nan,nan,nan,-0.21750628933344787,2.317777812437541,9.344571742992157,0.0,0.0,0.0,0.0,0.0,0.0
1769121354.4430623,nan,nan,nan,-0.21750628933344787,2.317777812437541,9.344571742992157,0.0,0.0,0.0,0.0,0.0,0.0
1769121354.4651423,nan,nan,nan,-0.21750628933344787,2.317777812437541,9.344571742992157,0.0,0.0,0.0,0.0,0.0,0.0
1769121354.4788375,nan,nan,nan,-0.21750628933344787,2.317777812437541,9.344571742992157,0.0,0.0,0.0,0.0,0.0,0.0
1769121354.5308425,nan,nan,nan,-0.21750628933344787,2.317777812437541,9.344571742992157,0.0,0.0,0.0,0.0,0.0,0.0
1769121354.5757327,nan,nan,nan,-0.21750628933344787,2.317777812437541,9.344571742992157,0.0,0.0,0.0,0.0,0.0,0.0
1769121354.600288,nan,nan,nan,-0.21750628933344787,2.317777812437541,9.344571742992157,0.0,0.0,0.0,0.0,0.0,0.0
1769121354.6456707,nan,nan,nan,-0.21750628933344787,2.317777812437541,9.344571742992157,0.0,0.0,0.0,0.0,0.0,0.0
1769121354.665651,nan,nan,nan,-0.21750628933344787,2.317777812437541,9.344571742992157,0.0,0.0,0.0,0.0,0.0,0.0
1769121354.6868253,nan,nan,nan,-0.21750628933344787,2.317777812437541,9.344571742992157,0.0,0.0,0.0,0.0,0.0,0.0
1769121354.7048743,nan,nan,nan,-0.21750628933344787,2.317777812437541,9.344571742992157,0.0,0.0,0.0,0.0,0.0,0.0
1769121354.7281191,nan,nan,nan,-0.21750628933344787,2.317777812437541,9.344571742992157,0.0,0.0,0.0,0.0,0.0,0.0
1769121354.742554,nan,nan,nan,-0.21750628933344787,2.317777812437541,9.344571742992157,0.0,0.0,0.0,0.0,0.0,0.0
1769121354.7590704,nan,nan,nan,-0.21750628933344787,2.317777812437541,9.344571742992157,0.0,0.0,0.0,0.0,0.0,0.0
1769121354.7780154,nan,nan,nan,-0.21750628933344787,2.317777812437541,9.344571742992157,0.0,0.0,0.0,0.0,0.0,0.0
1769121354.792773,nan,nan,nan,-0.21750628933344787,2.317777812437541,9.344571742992157,0.0,0.0,0.0,0.0,0.0,0.0
1769121354.8132012,nan,nan,nan,-0.21750628933344787,2.317777812437541,9.344571742992157,0.0,0.0,0.0,0.0,0.0,0.0
1769121354.8397827,nan,nan,nan,-0.21750628933344787,2.317777812437541,9.344571742992157,0.0,0.0,0.0,0.0,0.0,0.0
1769121354.8772478,nan,nan,nan,-0.21750628933344787,2.317777812437541,9.344571742992157,0.0,0.0,0.0,0.0,0.0,0.0
1769121354.9416375,nan,nan,nan,-0.21750628933344787,2.317777812437541,9.344571742992157,0.0,0.0,0.0,0.0,0.0,0.0
1769121354.9664226,nan,nan,nan,-0.21750628933344787,2.317777812437541,9.344571742992157,0.0,0.0,0.0,0.0,0.0,0.0
1769121354.9905303,nan,nan,nan,-0.21750628933344787,2.317777812437541,9.344571742992157,0.0,0.0,0.0,0.0,0.0,0.0
1769121355.03953,nan,nan,nan,-0.21750628933344787,2.317777812437541,9.344571742992157,0.0,0.0,0.0,0.0,0.0,0.0
1769121355.0593472,nan,nan,nan,-0.21750628933344787,2.317777812437541,9.344571742992157,0.0,0.0,0.0,0.0,0.0,0.0
1769121355.0783024,nan,nan,nan,-0.21750628933344787,2.317777812437541,9.344571742992157,0.0,0.0,0.0,0.0,0.0,0.0
1769121355.1035655,nan,nan,nan,-0.21750628933344787,2.317777812437541,9.344571742992157,0.0,0.0,0.0,0.0,0.0,0.0
1769121355.1336331,nan,nan,nan,-0.21750628933344787,2.317777812437541,9.344571742992157,0.0,0.0,0.0,0.0,0.0,0.0
1769121355.1672919,nan,nan,nan,-0.21750628933344787,2.317777812437541,9.344571742992157,0.0,0.0,0.0,0.0,0.0,0.0
1769121355.1883717,nan,nan,nan,-0.21750628933344787,2.317777812437541,9.344571742992157,0.0,0.0,0.0,0.0,0.0,0.0
1769121355.204702,nan,nan,nan,-0.21750628933344787,2.317777812437541,9.344571742992157,0.0,0.0,0.0,0.0,0.0,0.0
1769121355.221472,nan,nan,nan,-0.21750628933344787,2.317777812437541,9.344571742992157,0.0,0.0,0.0,0.0,0.0,0.0
1769121355.2463126,nan,nan,nan,-0.21750628933344787,2.317777812437541,9.344571742992157,0.0,0.0,0.0,0.0,0.0,0.0
1769121355.2729442,nan,nan,nan,-0.21750628933344787,2.317777812437541,9.344571742992157,0.0,0.0,0.0,0.0,0.0,0.0
1769121355.2881405,nan,nan,nan,-0.21750628933344787,2.317777812437541,9.344571742992157,0.0,0.0,0.0,0.0,0.0,0.0
1769121355.3058615,nan,nan,nan,-0.21750628933344787,2.317777812437541,9.344571742992157,0.0,0.0,0.0,0.0,0.0,0.0
1769121355.3218873,nan,nan,nan,-0.21750628933344787,2.317777812437541,9.344571742992157,0.0,0.0,0.0,0.0,0.0,0.0
1769121355.337965,nan,nan,nan,-0.21750628933344787,2.317777812437541,9.344571742992157,0.0,0.0,0.0,0.0,0.0,0.0
1769121355.3529837,nan,nan,nan,-0.21750628933344787,2.317777812437541,9.344571742992157,0.0,0.0,0.0,0.0,0.0,0.0
1769121355.3703048,nan,nan,nan,-0.21750628933344787,2.317777812437541,9.344571742992157,0.0,0.0,0.0,0.0,0.0,0.0
1769121355.3854463,nan,nan,nan,-0.21750628933344787,2.317777812437541,9.344571742992157,0.0,0.0,0.0,0.0,0.0,0.0
1769121355.4057431,nan,nan,nan,-0.21750628933344787,2.317777812437541,9.344571742992157,0.0,0.0,0.0,0.0,0.0,0.0
1769121355.422187,nan,nan,nan,-0.21750628933344787,2.317777812437541,9.344571742992157,0.0,0.0,0.0,0.0,0.0,0.0
1769121355.4387934,nan,nan,nan,-0.21750628933344787,2.317777812437541,9.344571742992157,0.0,0.0,0.0,0.0,0.0,0.0
1769121355.454813,nan,nan,nan,-0.21750628933344787,2.317777812437541,9.344571742992157,0.0,0.0,0.0,0.0,0.0,0.0
1769121355.4727,nan,nan,nan,-0.21750628933344787,2.317777812437541,9.344571742992157,0.0,0.0,0.0,0.0,0.0,0.0
1769121355.487204,nan,nan,nan,-0.21750628933344787,2.317777812437541,9.344571742992157,0.0,0.0,0.0,0.0,0.0,0.0
1769121355.501193,nan,nan,nan,-0.21750628933344787,2.317777812437541,9.344571742992157,0.0,0.0,0.0,0.0,0.0,0.0
1769121355.51346,nan,nan,nan,-0.21750628933344787,2.317777812437541,9.344571742992157,0.0,0.0,0.0,0.0,0.0,0.0
1769121355.5254605,nan,nan,nan,-0.21750628933344787,2.317777812437541,9.344571742992157,0.0,0.0,0.0,0.0,0.0,0.0
1769121355.537577,nan,nan,nan,-0.21750628933344787,2.317777812437541,9.344571742992157,0.0,0.0,0.0,0.0,0.0,0.0
1769121355.5497062,nan,nan,nan,-0.21750628933344787,2.317777812437541,9.344571742992157,0.0,0.0,0.0,0.0,0.0,0.0
1769121355.5643952,nan,nan,nan,-0.21750628933344787,2.317777812437541,9.344571742992157,0.0,0.0,0.0,0.0,0.0,0.0
1769121355.5834446,nan,nan,nan,-0.21750628933344787,2.317777812437541,9.344571742992157,0.0,0.0,0.0,0.0,0.0,0.0
1769121355.597715,nan,nan,nan,-0.21750628933344787,2.317777812437541,9.344571742992157,0.0,0.0,0.0,0.0,0.0,0.0
1769121355.6155558,nan,nan,nan,-0.21750628933344787,2.317777812437541,9.344571742992157,0.0,0.0,0.0,0.0,0.0,0.0
1769121355.6308548,nan,nan,nan,-0.21750628933344787,2.317777812437541,9.344571742992157,0.0,0.0,0.0,0.0,0.0,0.0
1769121355.6452994,nan,nan,nan,-0.21750628933344787,2.317777812437541,9.344571742992157,0.0,0.0,0.0,0.0,0.0,0.0
1769121355.6593075,nan,nan,nan,-0.21750628933344787,2.317777812437541,9.344571742992157,0.0,0.0,0.0,0.0,0.0,0.0
1769121355.6731057,nan,nan,nan,-0.21750628933344787,2.317777812437541,9.344571742992157,0.0,0.0,0.0,0.0,0.0,0.0
1769121355.6953614,nan,nan,nan,-0.21750628933344787,2.317777812437541,9.344571742992157,0.0,0.0,0.0,0.0,0.0,0.0
1769121355.7175887,nan,nan,nan,-0.21750628933344787,2.317777812437541,9.344571742992157,0.0,0.0,0.0,0.0,0.0,0.0
1769121355.7350545,nan,nan,nan,-0.21750628933344787,2.317777812437541,9.344571742992157,0.0,0.0,0.0,0.0,0.0,0.0
1769121355.7528305,nan,nan,nan,-0.21750628933344787,2.317777812437541,9.344571742992157,0.0,0.0,0.0,0.0,0.0,0.0
1769121355.7667806,nan,nan,nan,-0.21750628933344787,2.317777812437541,9.344571742992157,0.0,0.0,0.0,0.0,0.0,0.0
1769121355.780288,nan,nan,nan,-0.21750628933344787,2.317777812437541,9.344571742992157,0.0,0.0,0.0,0.0,0.0,0.0
1769121355.7981772,nan,nan,nan,-0.21750628933344787,2.317777812437541,9.344571742992157,0.0,0.0,0.0,0.0,0.0,0.0
1769121355.8114853,nan,nan,nan,-0.21750628933344787,2.317777812437541,9.344571742992157,0.0,0.0,0.0,0.0,0.0,0.0
1769121355.8314426,nan,nan,nan,-0.21750628933344787,2.317777812437541,9.344571742992157,0.0,0.0,0.0,0.0,0.0,0.0
1769121355.8475053,nan,nan,nan,-0.21750628933344787,2.317777812437541,9.344571742992157,0.0,0.0,0.0,0.0,0.0,0.0
1769121355.8627212,nan,nan,nan,-0.21750628933344787,2.317777812437541,9.344571742992157,0.0,0.0,0.0,0.0,0.0,0.0
1769121355.8792772,nan,nan,nan,-0.21750628933344787,2.317777812437541,9.344571742992157,0.0,0.0,0.0,0.0,0.0,0.0
1769121355.9056158,nan,nan,nan,-0.21750628933344787,2.317777812437541,9.344571742992157,0.0,0.0,0.0,0.0,0.0,0.0
1769121355.9305418,nan,nan,nan,-0.21750628933344787,2.317777812437541,9.344571742992157,0.0,0.0,0.0,0.0,0.0,0.0
1769121355.9593215,nan,nan,nan,-0.21750628933344787,2.317777812437541,9.344571742992157,0.0,0.0,0.0,0.0,0.0,0.0
1769121355.9889336,nan,nan,nan,-0.21750628933344787,2.317777812437541,9.344571742992157,0.0,0.0,0.0,0.0,0.0,0.0
1769121356.0072603,nan,nan,nan,-0.21750628933344787,2.317777812437541,9.344571742992157,0.0,0.0,0.0,0.0,0.0,0.0
1769121356.02275,nan,nan,nan,-0.21750628933344787,2.317777812437541,9.344571742992157,0.0,0.0,0.0,0.0,0.0,0.0
1769121356.0385299,nan,nan,nan,-0.21750628933344787,2.317777812437541,9.344571742992157,0.0,0.0,0.0,0.0,0.0,0.0
1769121356.0591044,nan,nan,nan,-0.21750628933344787,2.317777812437541,9.344571742992157,0.0,0.0,0.0,0.0,0.0,0.0
1769121356.0821655,nan,nan,nan,-0.21750628933344787,2.317777812437541,9.344571742992157,0.0,0.0,0.0,0.0,0.0,0.0
1769121356.1029632,nan,nan,nan,-0.21750628933344787,2.317777812437541,9.344571742992157,0.0,0.0,0.0,0.0,0.0,0.0
1769121356.1197937,nan,nan,nan,-0.21750628933344787,2.317777812437541,9.344571742992157,0.0,0.0,0.0,0.0,0.0,0.0
1769121356.1345906,nan,nan,nan,-0.21750628933344787,2.317777812437541,9.344571742992157,0.0,0.0,0.0,0.0,0.0,0.0
1769121356.1490517,nan,nan,nan,-0.21750628933344787,2.317777812437541,9.344571742992157,0.0,0.0,0.0,0.0,0.0,0.0
1769121356.1629717,nan,nan,nan,-0.21750628933344787,2.317777812437541,9.344571742992157,0.0,0.0,0.0,0.0,0.0,0.0
1769121356.175513,nan,nan,nan,-0.21750628933344787,2.317777812437541,9.344571742992157,0.0,0.0,0.0,0.0,0.0,0.0
1769121356.1881335,nan,nan,nan,-0.21750628933344787,2.317777812437541,9.344571742992157,0.0,0.0,0.0,0.0,0.0,0.0
1769121356.201011,nan,nan,nan,-0.21750628933344787,2.317777812437541,9.344571742992157,0.0,0.0,0.0,0.0,0.0,0.0
1769121356.213216,nan,nan,nan,-0.21750628933344787,2.317777812437541,9.344571742992157,0.0,0.0,0.0,0.0,0.0,0.0
1769121356.2272787,nan,nan,nan,-0.21750628933344787,2.317777812437541,9.344571742992157,0.0,0.0,0.0,0.0,0.0,0.0
1769121356.2410152,nan,nan,nan,-0.21750628933344787,2.317777812437541,9.344571742992157,0.0,0.0,0.0,0.0,0.0,0.0
1769121356.2587185,nan,nan,nan,-0.21750628933344787,2.317777812437541,9.344571742992157,0.0,0.0,0.0,0.0,0.0,0.0
1769121356.271925,nan,nan,nan,-0.21750628933344787,2.317777812437541,9.344571742992157,0.0,0.0,0.0,0.0,0.0,0.0
1769121356.2868931,nan,nan,nan,-0.21750628933344787,2.317777812437541,9.344571742992157,0.0,0.0,0.0,0.0,0.0,0.0
1769121356.3008058,nan,nan,nan,-0.21750628933344787,2.317777812437541,9.344571742992157,0.0,0.0,0.0,0.0,0.0,0.0
1769121356.3136153,nan,nan,nan,-0.21750628933344787,2.317777812437541,9.344571742992157,0.0,0.0,0.0,0.0,0.0,0.0
1769121356.3262131,nan,nan,nan,-0.21750628933344787,2.317777812437541,9.344571742992157,0.0,0.0,0.0,0.0,0.0,0.0
1769121356.3411894,nan,nan,nan,-0.21750628933344787,2.317777812437541,9.344571742992157,0.0,0.0,0.0,0.0,0.0,0.0
1769121356.3545632,nan,nan,nan,-0.21750628933344787,2.317777812437541,9.344571742992157,0.0,0.0,0.0,0.0,0.0,0.0
1769121356.3679924,nan,nan,nan,-0.21750628933344787,2.317777812437541,9.344571742992157,0.0,0.0,0.0,0.0,0.0,0.0
1769121356.3868582,nan,nan,nan,-0.21750628933344787,2.317777812437541,9.344571742992157,0.0,0.0,0.0,0.0,0.0,0.0
1769121356.4015741,nan,nan,nan,-0.21750628933344787,2.317777812437541,9.344571742992157,0.0,0.0,0.0,0.0,0.0,0.0
1769121356.4158325,nan,nan,nan,-0.21750628933344787,2.317777812437541,9.344571742992157,0.0,0.0,0.0,0.0,0.0,0.0
1769121356.429618,nan,nan,nan,-0.21750628933344787,2.317777812437541,9.344571742992157,0.0,0.0,0.0,0.0,0.0,0.0
1769121356.4511635,nan,nan,nan,-0.21750628933344787,2.317777812437541,9.344571742992157,0.0,0.0,0.0,0.0,0.0,0.0
1769121356.4736369,nan,nan,nan,-0.21750628933344787,2.317777812437541,9.344571742992157,0.0,0.0,0.0,0.0,0.0,0.0
1769121356.4890032,nan,nan,nan,-0.21750628933344787,2.317777812437541,9.344571742992157,0.0,0.0,0.0,0.0,0.0,0.0
1769121356.5067368,nan,nan,nan,-0.21750628933344787,2.317777812437541,9.344571742992157,0.0,0.0,0.0,0.0,0.0,0.0
1769121356.52205,nan,nan,nan,-0.21750628933344787,2.317777812437541,9.344571742992157,0.0,0.0,0.0,0.0,0.0,0.0
1769121356.5384161,nan,nan,nan,-0.21750628933344787,2.317777812437541,9.344571742992157,0.0,0.0,0.0,0.0,0.0,0.0
1769121356.559014,nan,nan,nan,-0.21750628933344787,2.317777812437541,9.344571742992157,0.0,0.0,0.0,0.0,0.0,0.0
1769121356.5773184,nan,nan,nan,-0.21750628933344787,2.317777812437541,9.344571742992157,0.0,0.0,0.0,0.0,0.0,0.0
1769121356.5953922,nan,nan,nan,-0.21750628933344787,2.317777812437541,9.344571742992157,0.0,0.0,0.0,0.0,0.0,0.0
1769121356.6144729,nan,nan,nan,-0.21750628933344787,2.317777812437541,9.344571742992157,0.0,0.0,0.0,0.0,0.0,0.0
1769121356.629046,nan,nan,nan,-0.21750628933344787,2.317777812437541,9.344571742992157,0.0,0.0,0.0,0.0,0.0,0.0
1769121356.6453245,nan,nan,nan,-0.21750628933344787,2.317777812437541,9.344571742992157,0.0,0.0,0.0,0.0,0.0,0.0
1769121356.659416,nan,nan,nan,-0.21750628933344787,2.317777812437541,9.344571742992157,0.0,0.0,0.0,0.0,0.0,0.0
1769121356.6787927,nan,nan,nan,-0.21750628933344787,2.317777812437541,9.344571742992157,0.0,0.0,0.0,0.0,0.0,0.0
1769121356.6969504,nan,nan,nan,-0.21750628933344787,2.317777812437541,9.344571742992157,0.0,0.0,0.0,0.0,0.0,0.0
1769121356.718095,nan,nan,nan,-0.21750628933344787,2.317777812437541,9.344571742992157,0.0,0.0,0.0,0.0,0.0,0.0
1769121356.7370083,nan,nan,nan,-0.21750628933344787,2.317777812437541,9.344571742992157,0.0,0.0,0.0,0.0,0.0,0.0
1769121356.7523766,nan,nan,nan,-0.21750628933344787,2.317777812437541,9.344571742992157,0.0,0.0,0.0,0.0,0.0,0.0
1769121356.7679284,nan,nan,nan,-0.21750628933344787,2.317777812437541,9.344571742992157,0.0,0.0,0.0,0.0,0.0,0.0
1769121356.787823,nan,nan,nan,-0.21750628933344787,2.317777812437541,9.344571742992157,0.0,0.0,0.0,0.0,0.0,0.0
1769121356.811359,nan,nan,nan,-0.21750628933344787,2.317777812437541,9.344571742992157,0.0,0.0,0.0,0.0,0.0,0.0
1769121356.831468,nan,nan,nan,-0.21750628933344787,2.317777812437541,9.344571742992157,0.0,0.0,0.0,0.0,0.0,0.0
1769121356.8489566,nan,nan,nan,-0.21750628933344787,2.317777812437541,9.344571742992157,0.0,0.0,0.0,0.0,0.0,0.0
1769121356.8666062,nan,nan,nan,-0.21750628933344787,2.317777812437541,9.344571742992157,0.0,0.0,0.0,0.0,0.0,0.0
1769121356.8975966,nan,nan,nan,-0.21750628933344787,2.317777812437541,9.344571742992157,0.0,0.0,0.0,0.0,0.0,0.0
1769121356.9194458,nan,nan,nan,-0.21750628933344787,2.317777812437541,9.344571742992157,0.0,0.0,0.0,0.0,0.0,0.0
1769121356.9367628,nan,nan,nan,-0.21750628933344787,2.317777812437541,9.344571742992157,0.0,0.0,0.0,0.0,0.0,0.0
1769121356.9576492,nan,nan,nan,-0.21750628933344787,2.317777812437541,9.344571742992157,0.0,0.0,0.0,0.0,0.0,0.0
1769121356.987211,nan,nan,nan,-0.21750628933344787,2.317777812437541,9.344571742992157,0.0,0.0,0.0,0.0,0.0,0.0
1769121357.0071986,nan,nan,nan,-0.21750628933344787,2.317777812437541,9.344571742992157,0.0,0.0,0.0,0.0,0.0,0.0
1769121357.028872,nan,nan,nan,-0.21750628933344787,2.317777812437541,9.344571742992157,0.0,0.0,0.0,0.0,0.0,0.0
1769121357.0696583,nan,nan,nan,-0.21750628933344787,2.317777812437541,9.344571742992157,0.0,0.0,0.0,0.0,0.0,0.0
1769121357.0874941,nan,nan,nan,-0.21750628933344787,2.317777812437541,9.344571742992157,0.0,0.0,0.0,0.0,0.0,0.0
1769121357.127081,nan,nan,nan,-0.21750628933344787,2.317777812437541,9.344571742992157,0.0,0.0,0.0,0.0,0.0,0.0
1769121357.1518238,nan,nan,nan,-0.21750628933344787,2.317777812437541,9.344571742992157,0.0,0.0,0.0,0.0,0.0,0.0
1769121357.1671581,nan,nan,nan,-0.21750628933344787,2.317777812437541,9.344571742992157,0.0,0.0,0.0,0.0,0.0,0.0
1769121357.1806924,nan,nan,nan,-0.21750628933344787,2.317777812437541,9.344571742992157,0.0,0.0,0.0,0.0,0.0,0.0
1769121357.1960926,nan,nan,nan,-0.21750628933344787,2.317777812437541,9.344571742992157,0.0,0.0,0.0,0.0,0.0,0.0
1769121357.2088263,nan,nan,nan,-0.21750628933344787,2.317777812437541,9.344571742992157,0.0,0.0,0.0,0.0,0.0,0.0
1769121357.2219505,nan,nan,nan,-0.21750628933344787,2.317777812437541,9.344571742992157,0.0,0.0,0.0,0.0,0.0,0.0
1769121357.2360773,nan,nan,nan,-0.21750628933344787,2.317777812437541,9.344571742992157,0.0,0.0,0.0,0.0,0.0,0.0
1769121357.2565894,nan,nan,nan,-0.21750628933344787,2.317777812437541,9.344571742992157,0.0,0.0,0.0,0.0,0.0,0.0
1769121357.271481,nan,nan,nan,-0.21750628933344787,2.317777812437541,9.344571742992157,0.0,0.0,0.0,0.0,0.0,0.0
1769121357.2923954,nan,nan,nan,-0.21750628933344787,2.317777812437541,9.344571742992157,0.0,0.0,0.0,0.0,0.0,0.0
1769121357.3066025,nan,nan,nan,-0.21750628933344787,2.317777812437541,9.344571742992157,0.0,0.0,0.0,0.0,0.0,0.0
1769121357.3193805,nan,nan,nan,-0.21750628933344787,2.317777812437541,9.344571742992157,0.0,0.0,0.0,0.0,0.0,0.0
1769121357.3335671,nan,nan,nan,-0.21750628933344787,2.317777812437541,9.344571742992157,0.0,0.0,0.0,0.0,0.0,0.0
1769121357.346425,nan,nan,nan,-0.21750628933344787,2.317777812437541,9.344571742992157,0.0,0.0,0.0,0.0,0.0,0.0
1769121357.3589175,nan,nan,nan,-0.21750628933344787,2.317777812437541,9.344571742992157,0.0,0.0,0.0,0.0,0.0,0.0
1769121357.3777933,nan,nan,nan,-0.21750628933344787,2.317777812437541,9.344571742992157,0.0,0.0,0.0,0.0,0.0,0.0
1769121357.3991725,nan,nan,nan,-0.21750628933344787,2.317777812437541,9.344571742992157,0.0,0.0,0.0,0.0,0.0,0.0
1769121357.414934,nan,nan,nan,-0.21750628933344787,2.317777812437541,9.344571742992157,0.0,0.0,0.0,0.0,0.0,0.0
1769121357.4304385,nan,nan,nan,-0.21750628933344787,2.317777812437541,9.344571742992157,0.0,0.0,0.0,0.0,0.0,0.0
1769121357.4456704,nan,nan,nan,-0.21750628933344787,2.317777812437541,9.344571742992157,0.0,0.0,0.0,0.0,0.0,0.0
1769121357.4602733,nan,nan,nan,-0.21750628933344787,2.317777812437541,9.344571742992157,0.0,0.0,0.0,0.0,0.0,0.0
1769121357.4746742,nan,nan,nan,-0.21750628933344787,2.317777812437541,9.344571742992157,0.0,0.0,0.0,0.0,0.0,0.0
1769121357.4902565,nan,nan,nan,-0.21750628933344787,2.317777812437541,9.344571742992157,0.0,0.0,0.0,0.0,0.0,0.0
1769121357.510438,nan,nan,nan,-0.21750628933344787,2.317777812437541,9.344571742992157,0.0,0.0,0.0,0.0,0.0,0.0
1769121357.5243568,nan,nan,nan,-0.21750628933344787,2.317777812437541,9.344571742992157,0.0,0.0,0.0,0.0,0.0,0.0
1769121357.5416434,nan,nan,nan,-0.21750628933344787,2.317777812437541,9.344571742992157,0.0,0.0,0.0,0.0,0.0,0.0
1769121357.559016,nan,nan,nan,-0.21750628933344787,2.317777812437541,9.344571742992157,0.0,0.0,0.0,0.0,0.0,0.0
1769121357.5799153,nan,nan,nan,-0.21750628933344787,2.317777812437541,9.344571742992157,0.0,0.0,0.0,0.0,0.0,0.0
1769121357.5982115,nan,nan,nan,-0.21750628933344787,2.317777812437541,9.344571742992157,0.0,0.0,0.0,0.0,0.0,0.0
1769121357.616788,nan,nan,nan,-0.21750628933344787,2.317777812437541,9.344571742992157,0.0,0.0,0.0,0.0,0.0,0.0
1769121357.6330898,nan,nan,nan,-0.21750628933344787,2.317777812437541,9.344571742992157,0.0,0.0,0.0,0.0,0.0,0.0
1769121357.6469955,nan,nan,nan,-0.21750628933344787,2.317777812437541,9.344571742992157,0.0,0.0,0.0,0.0,0.0,0.0
1769121357.6622145,nan,nan,nan,-0.21750628933344787,2.317777812437541,9.344571742992157,0.0,0.0,0.0,0.0,0.0,0.0
1769121357.679174,nan,nan,nan,-0.21750628933344787,2.317777812437541,9.344571742992157,0.0,0.0,0.0,0.0,0.0,0.0
1769121357.6955416,nan,nan,nan,-0.21750628933344787,2.317777812437541,9.344571742992157,0.0,0.0,0.0,0.0,0.0,0.0
1769121357.713973,nan,nan,nan,-0.21750628933344787,2.317777812437541,9.344571742992157,0.0,0.0,0.0,0.0,0.0,0.0
1769121357.7293255,nan,nan,nan,-0.21750628933344787,2.317777812437541,9.344571742992157,0.0,0.0,0.0,0.0,0.0,0.0
1769121357.749893,nan,nan,nan,-0.21750628933344787,2.317777812437541,9.344571742992157,0.0,0.0,0.0,0.0,0.0,0.0
1769121357.765867,nan,nan,nan,-0.21750628933344787,2.317777812437541,9.344571742992157,0.0,0.0,0.0,0.0,0.0,0.0
1769121357.780449,nan,nan,nan,-0.21750628933344787,2.317777812437541,9.344571742992157,0.0,0.0,0.0,0.0,0.0,0.0
1769121357.7966113,nan,nan,nan,-0.21750628933344787,2.317777812437541,9.344571742992157,0.0,0.0,0.0,0.0,0.0,0.0
1769121357.8158875,nan,nan,nan,-0.21750628933344787,2.317777812437541,9.344571742992157,0.0,0.0,0.0,0.0,0.0,0.0
1769121357.8323097,nan,nan,nan,-0.21750628933344787,2.317777812437541,9.344571742992157,0.0,0.0,0.0,0.0,0.0,0.0
1769121357.8488986,nan,nan,nan,-0.21750628933344787,2.317777812437541,9.344571742992157,0.0,0.0,0.0,0.0,0.0,0.0
1769121357.8785362,nan,nan,nan,-0.21750628933344787,2.317777812437541,9.344571742992157,0.0,0.0,0.0,0.0,0.0,0.0
1769121357.9153054,nan,nan,nan,-0.21750628933344787,2.317777812437541,9.344571742992157,0.0,0.0,0.0,0.0,0.0,0.0
1769121357.9317167,nan,nan,nan,-0.21750628933344787,2.317777812437541,9.344571742992157,0.0,0.0,0.0,0.0,0.0,0.0
1769121357.9497068,nan,nan,nan,-0.21750628933344787,2.317777812437541,9.344571742992157,0.0,0.0,0.0,0.0,0.0,0.0
1769121357.9714382,nan,nan,nan,-0.21750628933344787,2.317777812437541,9.344571742992157,0.0,0.0,0.0,0.0,0.0,0.0
1769121357.9870052,nan,nan,nan,-0.21750628933344787,2.317777812437541,9.344571742992157,0.0,0.0,0.0,0.0,0.0,0.0
1769121358.0023236,nan,nan,nan,-0.21750628933344787,2.317777812437541,9.344571742992157,0.0,0.0,0.0,0.0,0.0,0.0
1769121358.0176256,nan,nan,nan,-0.21750628933344787,2.317777812437541,9.344571742992157,0.0,0.0,0.0,0.0,0.0,0.0
1769121358.0323,nan,nan,nan,-0.21750628933344787,2.317777812437541,9.344571742992157,0.0,0.0,0.0,0.0,0.0,0.0
1769121358.047686,nan,nan,nan,-0.21750628933344787,2.317777812437541,9.344571742992157,0.0,0.0,0.0,0.0,0.0,0.0
1769121358.0660365,nan,nan,nan,-0.21750628933344787,2.317777812437541,9.344571742992157,0.0,0.0,0.0,0.0,0.0,0.0
1769121358.0818012,nan,nan,nan,-0.21750628933344787,2.317777812437541,9.344571742992157,0.0,0.0,0.0,0.0,0.0,0.0
1769121358.1020188,nan,nan,nan,-0.21750628933344787,2.317777812437541,9.344571742992157,0.0,0.0,0.0,0.0,0.0,0.0
1769121358.126543,nan,nan,nan,-0.21750628933344787,2.317777812437541,9.344571742992157,0.0,0.0,0.0,0.0,0.0,0.0
1769121358.1407347,nan,nan,nan,-0.21750628933344787,2.317777812437541,9.344571742992157,0.0,0.0,0.0,0.0,0.0,0.0
1769121358.1604679,nan,nan,nan,-0.21750628933344787,2.317777812437541,9.344571742992157,0.0,0.0,0.0,0.0,0.0,0.0
1769121358.1764176,nan,nan,nan,-0.21750628933344787,2.317777812437541,9.344571742992157,0.0,0.0,0.0,0.0,0.0,0.0
1769121358.1892428,nan,nan,nan,-0.21750628933344787,2.317777812437541,9.344571742992157,0.0,0.0,0.0,0.0,0.0,0.0
1769121358.2023602,nan,nan,nan,-0.21750628933344787,2.317777812437541,9.344571742992157,0.0,0.0,0.0,0.0,0.0,0.0
1769121358.2151308,nan,nan,nan,-0.21750628933344787,2.317777812437541,9.344571742992157,0.0,0.0,0.0,0.0,0.0,0.0
1769121358.2275443,nan,nan,nan,-0.21750628933344787,2.317777812437541,9.344571742992157,0.0,0.0,0.0,0.0,0.0,0.0
1769121358.2409008,nan,nan,nan,-0.21750628933344787,2.317777812437541,9.344571742992157,0.0,0.0,0.0,0.0,0.0,0.0
1769121358.2545223,nan,nan,nan,-0.21750628933344787,2.317777812437541,9.344571742992157,0.0,0.0,0.0,0.0,0.0,0.0
1769121358.269606,nan,nan,nan,-0.21750628933344787,2.317777812437541,9.344571742992157,0.0,0.0,0.0,0.0,0.0,0.0
1769121358.2850065,nan,nan,nan,-0.21750628933344787,2.317777812437541,9.344571742992157,0.0,0.0,0.0,0.0,0.0,0.0
1769121358.2994823,nan,nan,nan,-0.21750628933344787,2.317777812437541,9.344571742992157,0.0,0.0,0.0,0.0,0.0,0.0
1769121358.3129892,nan,nan,nan,-0.21750628933344787,2.317777812437541,9.344571742992157,0.0,0.0,0.0,0.0,0.0,0.0
1769121358.325519,nan,nan,nan,-0.21750628933344787,2.317777812437541,9.344571742992157,0.0,0.0,0.0,0.0,0.0,0.0
1769121358.337547,nan,nan,nan,-0.21750628933344787,2.317777812437541,9.344571742992157,0.0,0.0,0.0,0.0,0.0,0.0
1769121358.3510883,nan,nan,nan,-0.21750628933344787,2.317777812437541,9.344571742992157,0.0,0.0,0.0,0.0,0.0,0.0
1769121358.3658922,nan,nan,nan,-0.21750628933344787,2.317777812437541,9.344571742992157,0.0,0.0,0.0,0.0,0.0,0.0
1769121358.379416,nan,nan,nan,-0.21750628933344787,2.317777812437541,9.344571742992157,0.0,0.0,0.0,0.0,0.0,0.0
1769121358.3949773,nan,nan,nan,-0.21750628933344787,2.317777812437541,9.344571742992157,0.0,0.0,0.0,0.0,0.0,0.0
1769121358.4138384,nan,nan,nan,-0.21750628933344787,2.317777812437541,9.344571742992157,0.0,0.0,0.0,0.0,0.0,0.0
1769121358.4287992,nan,nan,nan,-0.21750628933344787,2.317777812437541,9.344571742992157,0.0,0.0,0.0,0.0,0.0,0.0
1769121358.442625,nan,nan,nan,-0.21750628933344787,2.317777812437541,9.344571742992157,0.0,0.0,0.0,0.0,0.0,0.0
1769121358.4569013,nan,nan,nan,-0.21750628933344787,2.317777812437541,9.344571742992157,0.0,0.0,0.0,0.0,0.0,0.0
1769121358.4752574,nan,nan,nan,-0.21750628933344787,2.317777812437541,9.344571742992157,0.0,0.0,0.0,0.0,0.0,0.0
1769121358.4954426,nan,nan,nan,-0.21750628933344787,2.317777812437541,9.344571742992157,0.0,0.0,0.0,0.0,0.0,0.0
1769121358.513747,nan,nan,nan,-0.21750628933344787,2.317777812437541,9.344571742992157,0.0,0.0,0.0,0.0,0.0,0.0
1769121358.526433,nan,nan,nan,-0.21750628933344787,2.317777812437541,9.344571742992157,0.0,0.0,0.0,0.0,0.0,0.0
1769121358.5405707,nan,nan,nan,-0.21750628933344787,2.317777812437541,9.344571742992157,0.0,0.0,0.0,0.0,0.0,0.0
1769121358.5600257,nan,nan,nan,-0.21750628933344787,2.317777812437541,9.344571742992157,0.0,0.0,0.0,0.0,0.0,0.0
1769121358.5774658,nan,nan,nan,-0.21750628933344787,2.317777812437541,9.344571742992157,0.0,0.0,0.0,0.0,0.0,0.0
1769121358.6002588,nan,nan,nan,-0.21750628933344787,2.317777812437541,9.344571742992157,0.0,0.0,0.0,0.0,0.0,0.0
1769121358.6141567,nan,nan,nan,-0.21750628933344787,2.317777812437541,9.344571742992157,0.0,0.0,0.0,0.0,0.0,0.0
1769121358.6330242,nan,nan,nan,-0.21750628933344787,2.317777812437541,9.344571742992157,0.0,0.0,0.0,0.0,0.0,0.0
1769121358.6483397,nan,nan,nan,-0.21750628933344787,2.317777812437541,9.344571742992157,0.0,0.0,0.0,0.0,0.0,0.0
1769121358.6643093,nan,nan,nan,-0.21750628933344787,2.317777812437541,9.344571742992157,0.0,0.0,0.0,0.0,0.0,0.0
1769121358.6782684,nan,nan,nan,-0.21750628933344787,2.317777812437541,9.344571742992157,0.0,0.0,0.0,0.0,0.0,0.0
1769121358.6922312,nan,nan,nan,-0.21750628933344787,2.317777812437541,9.344571742992157,0.0,0.0,0.0,0.0,0.0,0.0
1769121358.7118819,nan,nan,nan,-0.21750628933344787,2.317777812437541,9.344571742992157,0.0,0.0,0.0,0.0,0.0,0.0
1769121358.7266312,nan,nan,nan,-0.21750628933344787,2.317777812437541,9.344571742992157,0.0,0.0,0.0,0.0,0.0,0.0
1769121358.746763,nan,nan,nan,-0.21750628933344787,2.317777812437541,9.344571742992157,0.0,0.0,0.0,0.0,0.0,0.0
1769121358.765467,nan,nan,nan,-0.21750628933344787,2.317777812437541,9.344571742992157,0.0,0.0,0.0,0.0,0.0,0.0
1769121358.7842798,nan,nan,nan,-0.21750628933344787,2.317777812437541,9.344571742992157,0.0,0.0,0.0,0.0,0.0,0.0
1769121358.800038,nan,nan,nan,-0.21750628933344787,2.317777812437541,9.344571742992157,0.0,0.0,0.0,0.0,0.0,0.0
1769121358.8191535,nan,nan,nan,-0.21750628933344787,2.317777812437541,9.344571742992157,0.0,0.0,0.0,0.0,0.0,0.0
1769121358.834119,nan,nan,nan,-0.21750628933344787,2.317777812437541,9.344571742992157,0.0,0.0,0.0,0.0,0.0,0.0
1769121358.8511176,nan,nan,nan,-0.21750628933344787,2.317777812437541,9.344571742992157,0.0,0.0,0.0,0.0,0.0,0.0
1769121358.873631,nan,nan,nan,-0.21750628933344787,2.317777812437541,9.344571742992157,0.0,0.0,0.0,0.0,0.0,0.0
1769121358.892307,nan,nan,nan,-0.21750628933344787,2.317777812437541,9.344571742992157,0.0,0.0,0.0,0.0,0.0,0.0
1769121358.917054,nan,nan,nan,-0.21750628933344787,2.317777812437541,9.344571742992157,0.0,0.0,0.0,0.0,0.0,0.0
1769121358.9433236,nan,nan,nan,-0.21750628933344787,2.317777812437541,9.344571742992157,0.0,0.0,0.0,0.0,0.0,0.0
1769121358.959738,nan,nan,nan,-0.21750628933344787,2.317777812437541,9.344571742992157,0.0,0.0,0.0,0.0,0.0,0.0
1769121358.9777713,nan,nan,nan,-0.21750628933344787,2.317777812437541,9.344571742992157,0.0,0.0,0.0,0.0,0.0,0.0
1769121358.994385,nan,nan,nan,-0.21750628933344787,2.317777812437541,9.344571742992157,0.0,0.0,0.0,0.0,0.0,0.0
1769121359.0105307,nan,nan,nan,-0.21750628933344787,2.317777812437541,9.344571742992157,0.0,0.0,0.0,0.0,0.0,0.0
1769121359.032549,nan,nan,nan,-0.21750628933344787,2.317777812437541,9.344571742992157,0.0,0.0,0.0,0.0,0.0,0.0
1769121359.0468519,nan,nan,nan,-0.21750628933344787,2.317777812437541,9.344571742992157,0.0,0.0,0.0,0.0,0.0,0.0
1769121359.0662959,nan,nan,nan,-0.21750628933344787,2.317777812437541,9.344571742992157,0.0,0.0,0.0,0.0,0.0,0.0
1769121359.0817273,nan,nan,nan,-0.21750628933344787,2.317777812437541,9.344571742992157,0.0,0.0,0.0,0.0,0.0,0.0
1769121359.1039186,nan,nan,nan,-0.21750628933344787,2.317777812437541,9.344571742992157,0.0,0.0,0.0,0.0,0.0,0.0
1769121359.1256444,nan,nan,nan,-0.21750628933344787,2.317777812437541,9.344571742992157,0.0,0.0,0.0,0.0,0.0,0.0
1769121359.1444268,nan,nan,nan,-0.21750628933344787,2.317777812437541,9.344571742992157,0.0,0.0,0.0,0.0,0.0,0.0
1769121359.1603894,nan,nan,nan,-0.21750628933344787,2.317777812437541,9.344571742992157,0.0,0.0,0.0,0.0,0.0,0.0
1769121359.173803,nan,nan,nan,-0.21750628933344787,2.317777812437541,9.344571742992157,0.0,0.0,0.0,0.0,0.0,0.0
1769121359.187951,nan,nan,nan,-0.21750628933344787,2.317777812437541,9.344571742992157,0.0,0.0,0.0,0.0,0.0,0.0
1769121359.2033885,nan,nan,nan,-0.21750628933344787,2.317777812437541,9.344571742992157,0.0,0.0,0.0,0.0,0.0,0.0
1769121359.2171085,nan,nan,nan,-0.21750628933344787,2.317777812437541,9.344571742992157,0.0,0.0,0.0,0.0,0.0,0.0
1769121359.2311583,nan,nan,nan,-0.21750628933344787,2.317777812437541,9.344571742992157,0.0,0.0,0.0,0.0,0.0,0.0
1769121359.2439897,nan,nan,nan,-0.21750628933344787,2.317777812437541,9.344571742992157,0.0,0.0,0.0,0.0,0.0,0.0
1769121359.2595015,nan,nan,nan,-0.21750628933344787,2.317777812437541,9.344571742992157,0.0,0.0,0.0,0.0,0.0,0.0
1769121359.2746615,nan,nan,nan,-0.21750628933344787,2.317777812437541,9.344571742992157,0.0,0.0,0.0,0.0,0.0,0.0
1769121359.2897952,nan,nan,nan,-0.21750628933344787,2.317777812437541,9.344571742992157,0.0,0.0,0.0,0.0,0.0,0.0
1769121359.3037632,nan,nan,nan,-0.21750628933344787,2.317777812437541,9.344571742992157,0.0,0.0,0.0,0.0,0.0,0.0
1769121359.3173895,nan,nan,nan,-0.21750628933344787,2.317777812437541,9.344571742992157,0.0,0.0,0.0,0.0,0.0,0.0
1769121359.3301754,nan,nan,nan,-0.21750628933344787,2.317777812437541,9.344571742992157,0.0,0.0,0.0,0.0,0.0,0.0
1769121359.3422656,nan,nan,nan,-0.21750628933344787,2.317777812437541,9.344571742992157,0.0,0.0,0.0,0.0,0.0,0.0
1769121359.3543098,nan,nan,nan,-0.21750628933344787,2.317777812437541,9.344571742992157,0.0,0.0,0.0,0.0,0.0,0.0
1769121359.368405,nan,nan,nan,-0.21750628933344787,2.317777812437541,9.344571742992157,0.0,0.0,0.0,0.0,0.0,0.0
1769121359.3845599,nan,nan,nan,-0.21750628933344787,2.317777812437541,9.344571742992157,0.0,0.0,0.0,0.0,0.0,0.0
1769121359.4003687,nan,nan,nan,-0.21750628933344787,2.317777812437541,9.344571742992157,0.0,0.0,0.0,0.0,0.0,0.0
1769121359.4170454,nan,nan,nan,-0.21750628933344787,2.317777812437541,9.344571742992157,0.0,0.0,0.0,0.0,0.0,0.0
1769121359.4324405,nan,nan,nan,-0.21750628933344787,2.317777812437541,9.344571742992157,0.0,0.0,0.0,0.0,0.0,0.0
1769121359.4454792,nan,nan,nan,-0.21750628933344787,2.317777812437541,9.344571742992157,0.0,0.0,0.0,0.0,0.0,0.0
1769121359.4615686,nan,nan,nan,-0.21750628933344787,2.317777812437541,9.344571742992157,0.0,0.0,0.0,0.0,0.0,0.0
1769121359.4791913,nan,nan,nan,-0.21750628933344787,2.317777812437541,9.344571742992157,0.0,0.0,0.0,0.0,0.0,0.0
1769121359.4953134,nan,nan,nan,-0.21750628933344787,2.317777812437541,9.344571742992157,0.0,0.0,0.0,0.0,0.0,0.0
1769121359.516438,nan,nan,nan,-0.21750628933344787,2.317777812437541,9.344571742992157,0.0,0.0,0.0,0.0,0.0,0.0
1769121359.53094,nan,nan,nan,-0.21750628933344787,2.317777812437541,9.344571742992157,0.0,0.0,0.0,0.0,0.0,0.0
1769121359.5475988,nan,nan,nan,-0.21750628933344787,2.317777812437541,9.344571742992157,0.0,0.0,0.0,0.0,0.0,0.0
1769121359.5625036,nan,nan,nan,-0.21750628933344787,2.317777812437541,9.344571742992157,0.0,0.0,0.0,0.0,0.0,0.0
1769121359.5807953,nan,nan,nan,-0.21750628933344787,2.317777812437541,9.344571742992157,0.0,0.0,0.0,0.0,0.0,0.0
1769121359.5965164,nan,nan,nan,-0.21750628933344787,2.317777812437541,9.344571742992157,0.0,0.0,0.0,0.0,0.0,0.0
1769121359.609707,nan,nan,nan,-0.21750628933344787,2.317777812437541,9.344571742992157,0.0,0.0,0.0,0.0,0.0,0.0
1769121359.6232467,nan,nan,nan,-0.21750628933344787,2.317777812437541,9.344571742992157,0.0,0.0,0.0,0.0,0.0,0.0
1769121359.6387198,nan,nan,nan,-0.21750628933344787,2.317777812437541,9.344571742992157,0.0,0.0,0.0,0.0,0.0,0.0
1769121359.655526,nan,nan,nan,-0.21750628933344787,2.317777812437541,9.344571742992157,0.0,0.0,0.0,0.0,0.0,0.0
1769121359.671365,nan,nan,nan,-0.21750628933344787,2.317777812437541,9.344571742992157,0.0,0.0,0.0,0.0,0.0,0.0
1769121359.6870108,nan,nan,nan,-0.21750628933344787,2.317777812437541,9.344571742992157,0.0,0.0,0.0,0.0,0.0,0.0
1769121359.701751,nan,nan,nan,-0.21750628933344787,2.317777812437541,9.344571742992157,0.0,0.0,0.0,0.0,0.0,0.0
1769121359.71976,nan,nan,nan,-0.21750628933344787,2.317777812437541,9.344571742992157,0.0,0.0,0.0,0.0,0.0,0.0
1769121359.7438521,nan,nan,nan,-0.21750628933344787,2.317777812437541,9.344571742992157,0.0,0.0,0.0,0.0,0.0,0.0
1769121359.758792,nan,nan,nan,-0.21750628933344787,2.317777812437541,9.344571742992157,0.0,0.0,0.0,0.0,0.0,0.0
1769121359.7745886,nan,nan,nan,-0.21750628933344787,2.317777812437541,9.344571742992157,0.0,0.0,0.0,0.0,0.0,0.0
1769121359.7915213,nan,nan,nan,-0.21750628933344787,2.317777812437541,9.344571742992157,0.0,0.0,0.0,0.0,0.0,0.0
1769121359.8083045,nan,nan,nan,-0.21750628933344787,2.317777812437541,9.344571742992157,0.0,0.0,0.0,0.0,0.0,0.0
1769121359.8250713,nan,nan,nan,-0.21750628933344787,2.317777812437541,9.344571742992157,0.0,0.0,0.0,0.0,0.0,0.0
1769121359.8424926,nan,nan,nan,-0.21750628933344787,2.317777812437541,9.344571742992157,0.0,0.0,0.0,0.0,0.0,0.0
1769121359.8720093,nan,nan,nan,-0.21750628933344787,2.317777812437541,9.344571742992157,0.0,0.0,0.0,0.0,0.0,0.0
1769121359.896342,nan,nan,nan,-0.21750628933344787,2.317777812437541,9.344571742992157,0.0,0.0,0.0,0.0,0.0,0.0
1769121359.9138112,nan,nan,nan,-0.21750628933344787,2.317777812437541,9.344571742992157,0.0,0.0,0.0,0.0,0.0,0.0
1769121359.932464,nan,nan,nan,-0.21750628933344787,2.317777812437541,9.344571742992157,0.0,0.0,0.0,0.0,0.0,0.0
1769121359.9492154,nan,nan,nan,-0.21750628933344787,2.317777812437541,9.344571742992157,0.0,0.0,0.0,0.0,0.0,0.0
1769121359.9718268,nan,nan,nan,-0.21750628933344787,2.317777812437541,9.344571742992157,0.0,0.0,0.0,0.0,0.0,0.0
1769121359.9900992,nan,nan,nan,-0.21750628933344787,2.317777812437541,9.344571742992157,0.0,0.0,0.0,0.0,0.0,0.0
1769121360.0165677,nan,nan,nan,-0.21750628933344787,2.317777812437541,9.344571742992157,0.0,0.0,0.0,0.0,0.0,0.0
1769121360.0345833,nan,nan,nan,-0.21750628933344787,2.317777812437541,9.344571742992157,0.0,0.0,0.0,0.0,0.0,0.0
1769121360.0530553,nan,nan,nan,-0.21750628933344787,2.317777812437541,9.344571742992157,0.0,0.0,0.0,0.0,0.0,0.0
1769121360.0766063,nan,nan,nan,-0.21750628933344787,2.317777812437541,9.344571742992157,0.0,0.0,0.0,0.0,0.0,0.0
1769121360.094471,nan,nan,nan,-0.21750628933344787,2.317777812437541,9.344571742992157,0.0,0.0,0.0,0.0,0.0,0.0
1769121360.109314,nan,nan,nan,-0.21750628933344787,2.317777812437541,9.344571742992157,0.0,0.0,0.0,0.0,0.0,0.0
1769121360.1256003,nan,nan,nan,-0.21750628933344787,2.317777812437541,9.344571742992157,0.0,0.0,0.0,0.0,0.0,0.0
1769121360.1518261,nan,nan,nan,-0.21750628933344787,2.317777812437541,9.344571742992157,0.0,0.0,0.0,0.0,0.0,0.0
1769121360.1676085,nan,nan,nan,-0.21750628933344787,2.317777812437541,9.344571742992157,0.0,0.0,0.0,0.0,0.0,0.0
1769121360.1858082,nan,nan,nan,-0.21750628933344787,2.317777812437541,9.344571742992157,0.0,0.0,0.0,0.0,0.0,0.0
1769121360.198664,nan,nan,nan,-0.21750628933344787,2.317777812437541,9.344571742992157,0.0,0.0,0.0,0.0,0.0,0.0
1769121360.2126102,nan,nan,nan,-0.21750628933344787,2.317777812437541,9.344571742992157,0.0,0.0,0.0,0.0,0.0,0.0
1769121360.2263381,nan,nan,nan,-0.21750628933344787,2.317777812437541,9.344571742992157,0.0,0.0,0.0,0.0,0.0,0.0
1769121360.2430139,nan,nan,nan,-0.21750628933344787,2.317777812437541,9.344571742992157,0.0,0.0,0.0,0.0,0.0,0.0
1769121360.2568674,nan,nan,nan,-0.21750628933344787,2.317777812437541,9.344571742992157,0.0,0.0,0.0,0.0,0.0,0.0
1769121360.2696712,nan,nan,nan,-0.21750628933344787,2.317777812437541,9.344571742992157,0.0,0.0,0.0,0.0,0.0,0.0
1769121360.2847056,nan,nan,nan,-0.21750628933344787,2.317777812437541,9.344571742992157,0.0,0.0,0.0,0.0,0.0,0.0
1769121360.3021035,nan,nan,nan,-0.21750628933344787,2.317777812437541,9.344571742992157,0.0,0.0,0.0,0.0,0.0,0.0
1769121360.315389,nan,nan,nan,-0.21750628933344787,2.317777812437541,9.344571742992157,0.0,0.0,0.0,0.0,0.0,0.0
1769121360.3292227,nan,nan,nan,-0.21750628933344787,2.317777812437541,9.344571742992157,0.0,0.0,0.0,0.0,0.0,0.0
1769121360.34234,nan,nan,nan,-0.21750628933344787,2.317777812437541,9.344571742992157,0.0,0.0,0.0,0.0,0.0,0.0
1769121360.3549635,nan,nan,nan,-0.21750628933344787,2.317777812437541,9.344571742992157,0.0,0.0,0.0,0.0,0.0,0.0
1769121360.3672256,nan,nan,nan,-0.21750628933344787,2.317777812437541,9.344571742992157,0.0,0.0,0.0,0.0,0.0,0.0
1769121360.3822114,nan,nan,nan,-0.21750628933344787,2.317777812437541,9.344571742992157,0.0,0.0,0.0,0.0,0.0,0.0
1769121360.395548,nan,nan,nan,-0.21750628933344787,2.317777812437541,9.344571742992157,0.0,0.0,0.0,0.0,0.0,0.0
1769121360.4118388,nan,nan,nan,-0.21750628933344787,2.317777812437541,9.344571742992157,0.0,0.0,0.0,0.0,0.0,0.0
1769121360.4276667,nan,nan,nan,-0.21750628933344787,2.317777812437541,9.344571742992157,0.0,0.0,0.0,0.0,0.0,0.0
1769121360.4417546,nan,nan,nan,-0.21750628933344787,2.317777812437541,9.344571742992157,0.0,0.0,0.0,0.0,0.0,0.0
1769121360.4569361,nan,nan,nan,-0.21750628933344787,2.317777812437541,9.344571742992157,0.0,0.0,0.0,0.0,0.0,0.0
1769121360.4714859,nan,nan,nan,-0.21750628933344787,2.317777812437541,9.344571742992157,0.0,0.0,0.0,0.0,0.0,0.0
1769121360.4848957,nan,nan,nan,-0.21750628933344787,2.317777812437541,9.344571742992157,0.0,0.0,0.0,0.0,0.0,0.0
1769121360.498917,nan,nan,nan,-0.21750628933344787,2.317777812437541,9.344571742992157,0.0,0.0,0.0,0.0,0.0,0.0
1769121360.5123208,nan,nan,nan,-0.21750628933344787,2.317777812437541,9.344571742992157,0.0,0.0,0.0,0.0,0.0,0.0
1769121360.5265162,nan,nan,nan,-0.21750628933344787,2.317777812437541,9.344571742992157,0.0,0.0,0.0,0.0,0.0,0.0
1769121360.5432544,nan,nan,nan,-0.21750628933344787,2.317777812437541,9.344571742992157,0.0,0.0,0.0,0.0,0.0,0.0
1769121360.5560627,nan,nan,nan,-0.21750628933344787,2.317777812437541,9.344571742992157,0.0,0.0,0.0,0.0,0.0,0.0
1769121360.5697021,nan,nan,nan,-0.21750628933344787,2.317777812437541,9.344571742992157,0.0,0.0,0.0,0.0,0.0,0.0
1769121360.587692,nan,nan,nan,-0.21750628933344787,2.317777812437541,9.344571742992157,0.0,0.0,0.0,0.0,0.0,0.0
1769121360.608371,nan,nan,nan,-0.21750628933344787,2.317777812437541,9.344571742992157,0.0,0.0,0.0,0.0,0.0,0.0
1769121360.6247756,nan,nan,nan,-0.21750628933344787,2.317777812437541,9.344571742992157,0.0,0.0,0.0,0.0,0.0,0.0
1769121360.6443212,nan,nan,nan,-0.21750628933344787,2.317777812437541,9.344571742992157,0.0,0.0,0.0,0.0,0.0,0.0
1769121360.6609976,nan,nan,nan,-0.21750628933344787,2.317777812437541,9.344571742992157,0.0,0.0,0.0,0.0,0.0,0.0
1769121360.6763628,nan,nan,nan,-0.21750628933344787,2.317777812437541,9.344571742992157,0.0,0.0,0.0,0.0,0.0,0.0
1769121360.690795,nan,nan,nan,-0.21750628933344787,2.317777812437541,9.344571742992157,0.0,0.0,0.0,0.0,0.0,0.0
1769121360.7050822,nan,nan,nan,-0.21750628933344787,2.317777812437541,9.344571742992157,0.0,0.0,0.0,0.0,0.0,0.0
1769121360.7261474,nan,nan,nan,-0.21750628933344787,2.317777812437541,9.344571742992157,0.0,0.0,0.0,0.0,0.0,0.0
1769121360.7418506,nan,nan,nan,-0.21750628933344787,2.317777812437541,9.344571742992157,0.0,0.0,0.0,0.0,0.0,0.0
1769121360.7618825,nan,nan,nan,-0.21750628933344787,2.317777812437541,9.344571742992157,0.0,0.0,0.0,0.0,0.0,0.0
1769121360.7819042,nan,nan,nan,-0.21750628933344787,2.317777812437541,9.344571742992157,0.0,0.0,0.0,0.0,0.0,0.0
1769121360.7975922,nan,nan,nan,-0.21750628933344787,2.317777812437541,9.344571742992157,0.0,0.0,0.0,0.0,0.0,0.0
1769121360.8144836,nan,nan,nan,-0.21750628933344787,2.317777812437541,9.344571742992157,0.0,0.0,0.0,0.0,0.0,0.0
1769121360.8295343,nan,nan,nan,-0.21750628933344787,2.317777812437541,9.344571742992157,0.0,0.0,0.0,0.0,0.0,0.0
1769121360.842624,nan,nan,nan,-0.21750628933344787,2.317777812437541,9.344571742992157,0.0,0.0,0.0,0.0,0.0,0.0
1769121360.8662448,nan,nan,nan,-0.21750628933344787,2.317777812437541,9.344571742992157,0.0,0.0,0.0,0.0,0.0,0.0
1769121360.879497,nan,nan,nan,-0.21750628933344787,2.317777812437541,9.344571742992157,0.0,0.0,0.0,0.0,0.0,0.0
1769121360.9062724,nan,nan,nan,-0.21750628933344787,2.317777812437541,9.344571742992157,0.0,0.0,0.0,0.0,0.0,0.0
1769121360.9423976,nan,nan,nan,-0.21750628933344787,2.317777812437541,9.344571742992157,0.0,0.0,0.0,0.0,0.0,0.0
1769121360.9779685,nan,nan,nan,-0.21750628933344787,2.317777812437541,9.344571742992157,0.0,0.0,0.0,0.0,0.0,0.0
1769121360.9953017,nan,nan,nan,-0.21750628933344787,2.317777812437541,9.344571742992157,0.0,0.0,0.0,0.0,0.0,0.0
1769121361.0219817,nan,nan,nan,-0.21750628933344787,2.317777812437541,9.344571742992157,0.0,0.0,0.0,0.0,0.0,0.0
1769121361.049972,nan,nan,nan,-0.21750628933344787,2.317777812437541,9.344571742992157,0.0,0.0,0.0,0.0,0.0,0.0
1769121361.070976,nan,nan,nan,-0.21750628933344787,2.317777812437541,9.344571742992157,0.0,0.0,0.0,0.0,0.0,0.0
1769121361.0988836,nan,nan,nan,-0.21750628933344787,2.317777812437541,9.344571742992157,0.0,0.0,0.0,0.0,0.0,0.0
1769121361.1148992,nan,nan,nan,-0.21750628933344787,2.317777812437541,9.344571742992157,0.0,0.0,0.0,0.0,0.0,0.0
1769121361.1274147,nan,nan,nan,-0.21750628933344787,2.317777812437541,9.344571742992157,0.0,0.0,0.0,0.0,0.0,0.0
1769121361.1516397,nan,nan,nan,-0.21750628933344787,2.317777812437541,9.344571742992157,0.0,0.0,0.0,0.0,0.0,0.0
1769121361.1759293,nan,nan,nan,-0.21750628933344787,2.317777812437541,9.344571742992157,0.0,0.0,0.0,0.0,0.0,0.0
1769121361.1990426,nan,nan,nan,-0.21750628933344787,2.317777812437541,9.344571742992157,0.0,0.0,0.0,0.0,0.0,0.0
1769121361.21276,nan,nan,nan,-0.21750628933344787,2.317777812437541,9.344571742992157,0.0,0.0,0.0,0.0,0.0,0.0
1769121361.2295537,nan,nan,nan,-0.21750628933344787,2.317777812437541,9.344571742992157,0.0,0.0,0.0,0.0,0.0,0.0
1769121361.2435114,nan,nan,nan,-0.21750628933344787,2.317777812437541,9.344571742992157,0.0,0.0,0.0,0.0,0.0,0.0
1769121361.2585216,nan,nan,nan,-0.21750628933344787,2.317777812437541,9.344571742992157,0.0,0.0,0.0,0.0,0.0,0.0
1769121361.2754474,nan,nan,nan,-0.21750628933344787,2.317777812437541,9.344571742992157,0.0,0.0,0.0,0.0,0.0,0.0
1769121361.2937398,nan,nan,nan,-0.21750628933344787,2.317777812437541,9.344571742992157,0.0,0.0,0.0,0.0,0.0,0.0
1769121361.313387,nan,nan,nan,-0.21750628933344787,2.317777812437541,9.344571742992157,0.0,0.0,0.0,0.0,0.0,0.0
1769121361.3324032,nan,nan,nan,-0.21750628933344787,2.317777812437541,9.344571742992157,0.0,0.0,0.0,0.0,0.0,0.0
1769121361.3461537,nan,nan,nan,-0.21750628933344787,2.317777812437541,9.344571742992157,0.0,0.0,0.0,0.0,0.0,0.0
1769121361.3591006,nan,nan,nan,-0.21750628933344787,2.317777812437541,9.344571742992157,0.0,0.0,0.0,0.0,0.0,0.0
1769121361.374129,nan,nan,nan,-0.21750628933344787,2.317777812437541,9.344571742992157,0.0,0.0,0.0,0.0,0.0,0.0
1769121361.3879247,nan,nan,nan,-0.21750628933344787,2.317777812437541,9.344571742992157,0.0,0.0,0.0,0.0,0.0,0.0
1769121361.4055896,nan,nan,nan,-0.21750628933344787,2.317777812437541,9.344571742992157,0.0,0.0,0.0,0.0,0.0,0.0
1769121361.418652,nan,nan,nan,-0.21750628933344787,2.317777812437541,9.344571742992157,0.0,0.0,0.0,0.0,0.0,0.0
1769121361.4319935,nan,nan,nan,-0.21750628933344787,2.317777812437541,9.344571742992157,0.0,0.0,0.0,0.0,0.0,0.0
