timestamp,yaw,pitch,roll,ax,ay,az,gx,gy,gz,mx,my,mz
1771528716.8878324,-0.10610353866772941,1.5141008820352175,-8.017140988092184,-0.2565492142464877,-1.3655171881905208,9.700003006851126,0.0,0.0,-0.001090830782496456,18.0625,25.25,-60.6875
1771528717.3394458,45.62270785500102,1.5128236179696044,-8.01459063450902,-0.25227045389402486,-1.3691207475502505,9.760964389742194,0.0,0.0,0.0,18.0625,25.375,-61.0625
1771528717.5666983,45.6691635533827,1.5159512294740245,-8.014248959435209,-0.25497553200169176,-1.3858394932501836,9.77289214733572,-0.001090830782496456,0.002181661564992912,-0.001090830782496456,18.0625,25.375,-60.25
1771528717.6007316,45.6691635533827,1.5159512294740245,-8.014248959435209,-0.2533111609667916,-1.3805410058192642,9.771924691744518,-0.002181661564992912,0.0,0.0,18.0625,25.375,-60.25
1771528717.623528,45.79692249558489,1.5186308838308096,-8.014881199783392,-0.25220354063530825,-1.3803600333292894,9.77128086085576,0.001090830782496456,0.0,0.0,19.25,24.25,-60.6875
1771528717.6403394,45.79692249558489,1.5186308838308096,-8.014881199783392,-0.25220354063530825,-1.3803600333292894,9.77128086085576,0.001090830782496456,0.0,0.0,19.25,24.25,-60.6875
1771528717.6617322,45.79692249558489,1.5186308838308096,-8.014881199783392,-0.2514664316776359,-1.3802395981588063,9.770852398591355,-0.002181661564992912,-0.001090830782496456,0.002181661564992912,19.25,24.25,-60.6875
1771528717.6864142,45.79692249558489,1.5186308838308096,-8.014881199783392,-0.2509758939003515,-1.3801594498981988,9.77725748515527,-0.001090830782496456,-0.002181661564992912,0.0,19.25,24.25,-60.6875
1771528717.7084,45.82904754661868,1.5142558960803387,-8.01754161739446,-0.25064944648923476,-1.3801061121260794,9.78151999871405,0.001090830782496456,0.001090830782496456,0.0,18.875,24.6875,-60.25
1771528717.7230935,45.82904754661868,1.5142558960803387,-8.01754161739446,-0.25064944648923476,-1.3801061121260794,9.78151999871405,0.001090830782496456,0.001090830782496456,0.0,18.875,24.6875,-60.25
1771528717.7477758,0.03193943558829511,1.514249057575088,-8.017505523359175,-1.1662042442542753,-0.7755338266997218,9.784356653872022,-0.0015425184684899414,2.1456151824283196e-05,0.002181661564992912,18.875,24.6875,-60.25
1771528717.767737,0.03193943558829511,1.514249057575088,-8.017505523359175,-1.1662042442542753,-0.7755338266997218,9.784356653872022,-0.0015425184684899414,2.1456151824283196e-05,0.002181661564992912,18.875,24.6875,-60.25
1771528717.791516,0.03193943558829511,1.514249057575088,-8.017505523359175,-1.1675947936342093,-0.7708772185775978,9.779554192777498,-0.0007605311583328291,0.0007819873101571123,0.001090830782496456,30.820095767873486,4.167936762848845,-61.0625
1771528717.8177292,-0.015191495486834568,1.51736588550814,-8.015204086349552,-1.1615235168488416,-0.7749723602913516,9.776358208566098,-0.0023245057786470537,-0.0007390750065085459,0.0,30.820095767873486,4.167936762848845,-61.0625
1771528717.8307412,-0.015191495486834568,1.51736588550814,-8.015204086349552,-1.1615235168488416,-0.7749723602913516,9.776358208566098,-0.0023245057786470537,-0.0007390750065085459,0.0,30.820095767873486,4.167936762848845,-61.0625
1771528717.8449934,-0.015191495486834568,1.51736588550814,-8.015204086349552,-1.1598811707692205,-0.7800298553108777,9.774231316774895,-0.0008034434619813955,-0.0023030496268227705,0.001090830782496456,30.820095767873486,4.167936762848845,-61.0625
1771528717.8626342,0.23921267130122267,1.5131686019804713,-8.014039148596511,-1.1587882077994405,-0.7833955617504511,9.776161005754107,-0.0015425184684899414,2.1456151824283196e-05,-0.001090830782496456,29.782214518598572,2.635427786560763,-60.75
1771528717.8897038,0.23921267130122267,1.5131686019804713,-8.014039148596511,-1.1603930771070012,-0.7832373809881474,9.780790303921053,-0.0007605311583328291,0.0007819873101571123,-0.001090830782496456,29.782214518598572,2.635427786560763,-60.75
1771528717.910705,0.23921267130122267,1.5131686019804713,-8.014039148596511,-1.1603930771070012,-0.7832373809881474,9.780790303921053,-0.0007605311583328291,0.0007819873101571123,-0.001090830782496456,29.782214518598572,2.635427786560763,-60.75
1771528717.9256313,0.22322412742780853,1.518489151681095,-8.01145494792114,-1.1614610997036179,-0.7831321134578291,9.783871050138508,-0.0015210623166656582,0.0015639746203142246,0.0,29.782214518598572,2.635427786560763,-60.75
1771528717.9443066,0.22322412742780853,1.518489151681095,-8.01145494792114,-1.1614610997036179,-0.7831321134578291,9.783871050138508,-0.0015210623166656582,0.0015639746203142246,0.0,29.782214518598572,2.635427786560763,-60.75
1771528717.9628174,0.24563843278791028,1.5135823525359386,-8.013763143612591,-1.1621718568110724,-0.7830620590923177,9.785921252332033,-0.0007605311583328291,0.0007819873101571123,0.0,29.708586883862594,3.6972147102903716,-60.25
1771528717.9753728,0.24563843278791028,1.5135823525359386,-8.013763143612591,-1.1626448577264061,-0.7830154386946284,9.780595415574926,0.0015425184684899414,-2.1456151824283196e-05,-0.001090830782496456,29.708586883862594,3.6972147102903716,-60.25
1771528717.9873295,0.24563843278791028,1.5135823525359386,-8.013763143612591,-1.1626448577264061,-0.7830154386946284,9.780595415574926,0.0015425184684899414,-2.1456151824283196e-05,-0.001090830782496456,29.708586883862594,3.6972147102903716,-60.25
1771528718.008529,0.20764962172683335,1.517385993911427,-8.01159344384765,-1.1629596345517945,-0.7829844133407501,9.783741354121204,-0.0015425184684899414,2.1456151824283196e-05,-0.001090830782496456,29.708586883862594,3.6972147102903716,-60.25
1771528718.0205445,0.20764962172683335,1.517385993911427,-8.01159344384765,-1.1631691150128027,-0.78296376631432,9.779144717666679,-0.0015425184684899414,2.1456151824283196e-05,-0.001090830782496456,30.783896623977558,4.743020123746377,-60.6875
1771528718.0321708,0.20764962172683335,1.517385993911427,-8.01159344384765,-1.1633085219195536,-0.7829500259488732,9.779430819161304,-0.0007819873101571123,-0.0007605311583328291,0.002181661564992912,30.783896623977558,4.743020123746377,-60.6875
1771528718.0439513,0.20764962172683335,1.517385993911427,-8.01159344384765,-1.1633085219195536,-0.7829500259488732,9.779430819161304,-0.0007819873101571123,-0.0007605311583328291,0.002181661564992912,30.783896623977558,4.743020123746377,-60.6875
1771528718.0625823,0.26763824284244897,1.5150993503283463,-8.01334866328996,-1.1609374780126016,-0.7758784131792166,9.776276104802694,-0.0023245057786470537,-0.0007390750065085459,0.0,30.783896623977558,4.743020123746377,-60.6875
1771528718.0779443,0.26763824284244897,1.5150993503283463,-8.01334866328996,-1.1618233924249386,-0.7782348025860424,9.777521789344828,-0.0023245057786470537,-0.0007390750065085459,-0.001090830782496456,30.543892251180004,3.3762066210921,-61.0625
1771528718.1047347,0.26763824284244897,1.5150993503283463,-8.01334866328996,-1.1618233924249386,-0.7782348025860424,9.777521789344828,-0.0023245057786470537,-0.0007390750065085459,-0.001090830782496456,30.543892251180004,3.3762066210921,-61.0625
1771528718.1183038,0.2612130970220911,1.5146857186384377,-8.013624818763969,-1.1599491409239187,-0.772740484703749,9.77500566678509,-0.0007819873101571123,-0.0007605311583328291,-0.001090830782496456,30.543892251180004,3.3762066210921,-61.0625
1771528718.1328561,0.2612130970220911,1.5146857186384377,-8.013624818763969,-1.1599491409239187,-0.772740484703749,9.77500566678509,-0.0007819873101571123,-0.0007605311583328291,-0.001090830782496456,30.543892251180004,3.3762066210921,-61.0625
1771528718.1521194,0.27406308513928224,1.5155129313133302,-8.013072474551423,-1.1634978890876218,-0.7737485254381411,9.780021438743155,-0.0015639746203142246,-0.0015210623166656582,0.001090830782496456,30.543892251180004,3.3762066210921,-61.0625
1771528718.1679819,0.27406308513928224,1.5155129313133302,-8.013072474551423,-1.1658595413484518,-0.7744193652863263,9.773324043829444,-0.0015639746203142246,-0.0015210623166656582,0.0,31.081547121237488,3.8991093278201023,-61.875
1771528718.1792965,0.27406308513928224,1.5155129313133302,-8.013072474551423,-1.1658595413484518,-0.7744193652863263,9.773324043829444,-0.0015639746203142246,-0.0015210623166656582,0.0,31.081547121237488,3.8991093278201023,-61.875
1771528718.1925116,0.2612130970220911,1.5146857186384377,-8.013624818763969,-1.1674311945466498,-0.7748658017115214,9.77890233745113,0.0007819873101571123,0.0007605311583328291,0.0,31.081547121237488,3.8991093278201023,-61.875
1771528718.2043755,0.2612130970220911,1.5146857186384377,-8.013624818763969,-1.1674311945466498,-0.7748658017115214,9.77890233745113,0.0007819873101571123,0.0007605311583328291,0.0,31.081547121237488,3.8991093278201023,-61.875
1771528718.2167015,0.2612130970220911,1.5146857186384377,-8.013624818763969,-1.1684771121935342,-0.7751629001654672,9.78261462954274,0.0007819873101571123,0.0007605311583328291,-0.001090830782496456,31.081547121237488,3.8991093278201023,-61.875
1771528718.2288058,0.2612130970220911,1.5146857186384377,-8.013624818763969,-1.1684771121935342,-0.7751629001654672,9.78261462954274,0.0007819873101571123,0.0007605311583328291,-0.001090830782496456,31.081547121237488,3.8991093278201023,-61.875
1771528718.2434392,0.2612130970220911,1.5146857186384377,-8.013624818763969,-1.16917315870387,-0.7753606158677608,9.785085118460687,0.002345961930471337,0.0022815934749984873,0.0,31.088923202902226,4.429388116212846,-61.0625
1771528718.2583923,0.26763824284244897,1.5150993503283463,-8.01334866328996,-1.1696363698811494,-0.7754921934590082,9.786729201238412,2.145615182428316e-05,0.0015425184684899414,0.0,31.088923202902226,4.429388116212846,-61.0625
1771528718.2727556,0.26763824284244897,1.5150993503283463,-8.01334866328996,-1.1696363698811494,-0.7754921934590082,9.786729201238412,2.145615182428316e-05,0.0015425184684899414,0.0,31.088923202902226,4.429388116212846,-61.0625
1771528718.2931955,0.26763824284244897,1.5150993503283463,-8.01334866328996,-1.167612407790468,-0.7779777776766007,9.78782331996138,0.0015639746203142246,0.0015210623166656582,0.0,31.088923202902226,4.429388116212846,-61.0625
1771528718.307962,0.2612130970220911,1.5146857186384377,-8.013624818763969,-1.1662654836282573,-0.7796319062076135,9.788551443749407,2.145615182428316e-05,0.0015425184684899414,0.001090830782496456,30.07317019862153,4.487715505102992,-61.5
1771528718.3306642,0.2612130970220911,1.5146857186384377,-8.013624818763969,-1.1662654836282573,-0.7796319062076135,9.788551443749407,2.145615182428316e-05,0.0015425184684899414,0.001090830782496456,30.07317019862153,4.487715505102992,-61.5
1771528718.3508012,0.2612130970220911,1.5146857186384377,-8.013624818763969,-1.1629710998439995,-0.778400486312423,9.789036001996664,0.0015639746203142246,0.0015210623166656582,-0.001090830782496456,30.07317019862153,4.487715505102992,-61.5
1771528718.3634713,0.3523507996282026,1.5146079393545,-8.015104415181646,-1.1655089689914426,-0.7775151932823529,9.792703581804663,-0.0007605311583328291,0.0007819873101571123,-0.001090830782496456,30.07317019862153,4.487715505102992,-61.5
1771528718.3755965,0.3523507996282026,1.5146079393545,-8.015104415181646,-1.1655089689914426,-0.7775151932823529,9.792703581804663,-0.0007605311583328291,0.0007819873101571123,-0.001090830782496456,30.07317019862153,4.487715505102992,-61.5
1771528718.3904293,0.3523507996282026,1.5146079393545,-8.015104415181646,-1.1624676478040215,-0.7769918375058947,9.788454091782695,0.002345961930471337,0.0022815934749984873,0.0,30.805343604544003,3.107379186063358,-60.25
1771528718.4071493,0.4055002798657389,1.5183314515933857,-8.014408200705892,-1.165173927282765,-0.7765777532372466,9.78562610364299,0.0015639746203142246,0.0015210623166656582,0.0,30.805343604544003,3.107379186063358,-60.25
1771528718.4231346,0.4055002798657389,1.5183314515933857,-8.014408200705892,-1.165173927282765,-0.7765777532372466,9.78562610364299,0.0015639746203142246,0.0015210623166656582,0.0,30.805343604544003,3.107379186063358,-60.25
1771528718.4360669,0.4055002798657389,1.5183314515933857,-8.014408200705892,-1.164576905244311,-0.7739699608273326,9.783744109126713,2.145615182428316e-05,0.0015425184684899414,-0.001090830782496456,30.805343604544003,3.107379186063358,-60.25
1771528718.4509075,0.4055002798657389,1.5183314515933857,-8.014408200705892,-1.164576905244311,-0.7739699608273326,9.783744109126713,2.145615182428316e-05,0.0015425184684899414,-0.001090830782496456,30.805343604544003,3.107379186063358,-60.25
1771528718.4632454,0.399078300041997,1.5179181634022791,-8.014685065104405,-1.1665776145473281,-0.7745667280642379,9.782491662799389,-0.0007605311583328291,0.0007819873101571123,-0.002181661564992912,30.820095767873486,4.167936762848845,-60.25
1771528718.4753392,0.399078300041997,1.5179181634022791,-8.014685065104405,-1.1679090642390988,-0.7749638699940714,9.785003285466615,-0.0007819873101571123,-0.0007605311583328291,0.0,30.820095767873486,4.167936762848845,-60.25
1771528718.487871,0.399078300041997,1.5179181634022791,-8.014685065104405,-1.1679090642390988,-0.7749638699940714,9.785003285466615,-0.0007819873101571123,-0.0007605311583328291,0.0,30.820095767873486,4.167936762848845,-60.25
1771528718.5009904,0.39634648691505237,1.5176414380665044,-8.014271622993814,-1.1664629051809516,-0.7776261843124451,9.786674742294991,-0.0015425184684899414,2.1456151824283196e-05,0.0,30.820095767873486,4.167936762848845,-60.25
1771528718.5121865,0.39634648691505237,1.5176414380665044,-8.014271622993814,-1.1664629051809516,-0.7776261843124451,9.786674742294991,-0.0015425184684899414,2.1456151824283196e-05,0.0,30.820095767873486,4.167936762848845,-60.25
1771528718.5262318,0.39634648691505237,1.5176414380665044,-8.014271622993814,-1.1678985232828452,-0.7817301487060763,9.787787078142879,0.0023245057786470537,0.0007390750065085459,0.0,29.759538191087998,4.182688926178324,-60.25
1771528718.5449028,0.4055002798657389,1.5183314515933857,-8.014408200705892,-1.1688539110927503,-0.7844612911657517,9.788527325224043,0.0008034434619813955,0.0023030496268227705,0.001090830782496456,29.759538191087998,4.182688926178324,-60.25
1771528718.5692306,0.4055002798657389,1.5183314515933857,-8.014408200705892,-1.1688539110927503,-0.7844612911657517,9.788527325224043,0.0008034434619813955,0.0023030496268227705,0.001090830782496456,29.759538191087998,4.182688926178324,-60.25
1771528718.5904524,1.2249955543195852,1.5708122159740185,-7.978699816795921,-1.1670916902074255,-0.7839466120090522,9.792365063094776,2.145615182428316e-05,0.0015425184684899414,-0.002181661564992912,31.081547121237488,3.8991093278201023,-61.0625
1771528718.6055949,1.2249955543195852,1.5708122159740185,-7.978699816795921,-1.1670916902074255,-0.7839466120090522,9.792365063094776,2.145615182428316e-05,0.0015425184684899414,-0.002181661564992912,31.081547121237488,3.8991093278201023,-61.0625
1771528718.6304574,0.4055002798657389,1.5183314515933857,-8.014408200705892,-1.1635209310931038,-0.7812718748248586,9.794919034777408,-0.0007605311583328291,0.0007819873101571123,0.002181661564992912,31.081547121237488,3.8991093278201023,-61.0625
1771528718.6517894,0.41192195545009425,1.5187446889757679,-8.01413130317537,-1.1634768547452685,-0.7770938463071144,9.793273562695147,2.145615182428316e-05,0.0015425184684899414,-0.002181661564992912,30.857524258713536,3.6812332000167682,-59.875
1771528718.6652591,0.41192195545009425,1.5187446889757679,-8.01413130317537,-1.1634768547452685,-0.7770938463071144,9.793273562695147,2.145615182428316e-05,0.0015425184684899414,-0.002181661564992912,30.857524258713536,3.6812332000167682,-59.875
1771528718.6778443,0.41192195545009425,1.5187446889757679,-8.01413130317537,-1.1658455432285848,-0.7766456389549453,9.78548829599089,-0.0023245057786470537,-0.0007390750065085459,-0.001090830782496456,30.857524258713536,3.6812332000167682,-59.875
1771528718.6902454,0.41192195545009425,1.5187446889757679,-8.01413130317537,-1.1658455432285848,-0.7766456389549453,9.78548829599089,-0.0023245057786470537,-0.0007390750065085459,-0.001090830782496456,30.857524258713536,3.6812332000167682,-59.875
1771528718.709127,0.39634648691505237,1.5176414380665044,-8.014271622993814,-1.1674218789542476,-0.7763473619688809,9.786997511380973,0.0,0.0,-0.002181661564992912,30.857524258713536,3.6812332000167682,-59.875
1771528718.7206676,0.39634648691505237,1.5176414380665044,-8.014271622993814,-1.1674218789542476,-0.7763473619688809,9.786997511380973,0.0,0.0,-0.002181661564992912,30.857524258713536,3.6812332000167682,-59.875
1771528718.7352383,0.39634648691505237,1.5176414380665044,-8.014271622993814,-1.1684709127708524,-0.7761488619666275,9.781311653949395,-0.0015425184684899414,2.1456151824283196e-05,-0.002181661564992912,30.515069188948818,4.481568770382376,-60.6875
1771528718.747308,0.39634648691505237,1.5176414380665044,-8.014271622993814,-1.1684709127708524,-0.7761488619666275,9.781311653949395,-0.0015425184684899414,2.1456151824283196e-05,-0.002181661564992912,30.515069188948818,4.481568770382376,-60.6875
1771528718.76244,0.41192195545009425,1.5187446889757679,-8.01413130317537,-1.1691690330573272,-0.776016762432518,9.784218002758507,-0.00236741808229562,-0.0038241119434884287,-0.001090830782496456,30.515069188948818,4.481568770382376,-60.6875
1771528718.7740316,0.41192195545009425,1.5187446889757679,-8.01413130317537,-1.1691690330573272,-0.776016762432518,9.784218002758507,-0.00236741808229562,-0.0038241119434884287,-0.001090830782496456,30.515069188948818,4.481568770382376,-60.6875
1771528718.788442,0.41192195545009425,1.5187446889757679,-8.01413130317537,-1.1696336243094618,-0.7759288516682168,9.786152145424929,0.0,0.0,0.001090830782496456,30.515069188948818,4.481568770382376,-60.6875
1771528718.8037407,0.41192195545009425,1.5187446889757679,-8.01413130317537,-1.169942804597933,-0.7758703480366017,9.787439295763642,-0.0007605311583328291,0.0007819873101571123,-0.001090830782496456,30.820095767873486,4.167936762848845,-61.0625
1771528718.8149068,0.41192195545009425,1.5187446889757679,-8.01413130317537,-1.169942804597933,-0.7758703480366017,9.787439295763642,-0.0007605311583328291,0.0007819873101571123,-0.001090830782496456,30.820095767873486,4.167936762848845,-61.0625
1771528718.8305178,0.41192195545009425,1.5187446889757679,-8.01413130317537,-1.1654183158709517,-0.7758972113689726,9.781605656521005,-0.0015425184684899414,2.1456151824283196e-05,-0.002181661564992912,30.820095767873486,4.167936762848845,-61.0625
1771528718.8426456,0.41192195545009425,1.5187446889757679,-8.01413130317537,-1.1654183158709517,-0.7758972113689726,9.781605656521005,-0.0015425184684899414,2.1456151824283196e-05,-0.002181661564992912,30.820095767873486,4.167936762848845,-61.0625
1771528718.8571372,0.39634648691505237,1.5176414380665044,-8.014271622993814,-1.1576770744098082,-0.7759808854622647,9.777723434771051,-0.0015425184684899414,2.1456151824283196e-05,0.0,30.820095767873486,4.167936762848845,-61.0625
1771528718.8744924,0.39634648691505237,1.5176414380665044,-8.014271622993814,-1.1548575886475032,-0.7736385488362143,9.775139859563716,-0.0007390750065085459,0.0023245057786470537,0.0,30.515069188948818,4.481568770382376,-60.75
1771528718.886656,0.39634648691505237,1.5176414380665044,-8.014271622993814,-1.1548575886475032,-0.7736385488362143,9.775139859563716,-0.0007390750065085459,0.0023245057786470537,0.0,30.515069188948818,4.481568770382376,-60.75
1771528718.8981833,0.39634648691505237,1.5176414380665044,-8.014271622993814,-1.1553792731688444,-0.7744119739319454,9.776765630830978,0.0007605311583328291,-0.0007819873101571123,0.001090830782496456,30.515069188948818,4.481568770382376,-60.75
1771528718.9101048,0.34591922825838045,2.3395858602918973,-7.664873863591905,-1.1581244691906345,-0.7772589036481832,9.774502451740966,-0.0007819873101571123,-0.0007605311583328291,0.001090830782496456,30.515069188948818,4.481568770382376,-60.75
1771528718.922397,0.34591922825838045,2.3395858602918973,-7.664873863591905,-1.1581244691906345,-0.7772589036481832,9.774502451740966,-0.0007819873101571123,-0.0007605311583328291,0.001090830782496456,30.515069188948818,4.481568770382376,-60.75
1771528718.9355364,0.39634648691505237,1.5176414380665044,-8.014271622993814,-1.159951366477287,-0.7791535035720507,9.77634144304525,0.0015639746203142246,0.0015210623166656582,-0.002181661564992912,30.596072905349533,3.95006063504551,-60.25
1771528718.9469507,0.39634648691505237,1.5176414380665044,-8.014271622993814,-1.159951366477287,-0.7791535035720507,9.77634144304525,0.0015639746203142246,0.0015210623166656582,-0.002181661564992912,30.596072905349533,3.95006063504551,-60.25
1771528718.959496,0.3835022026287549,1.5168147754424595,-8.014825150874902,-1.1611671462137743,-0.7804143386573167,9.777565271215373,-0.0007819873101571123,-0.0007605311583328291,0.0,30.596072905349533,3.95006063504551,-60.25
1771528718.9745162,0.3835022026287549,1.5168147754424595,-8.014825150874902,-1.1666406819567632,-0.7764573687212396,9.778379715191534,0.0007819873101571123,0.0007605311583328291,0.0,30.596072905349533,3.95006063504551,-60.25
1771528718.985831,0.3835022026287549,1.5168147754424595,-8.014825150874902,-1.1666406819567632,-0.7764573687212396,9.778379715191534,0.0007819873101571123,0.0007605311583328291,0.0,30.596072905349533,3.95006063504551,-60.25
1771528719.0101721,0.3835022026287549,1.5168147754424595,-8.014825150874902,-1.1656188109408157,-0.7786200910319016,9.778921718559733,-0.0007605311583328291,0.0007819873101571123,-0.001090830782496456,31.560874602404823,3.40625903026741,-61.5
1771528719.021502,0.3835022026287549,1.5168147754424595,-8.014825150874902,-1.1656188109408157,-0.7786200910319016,9.778921718559733,-0.0007605311583328291,0.0007819873101571123,-0.001090830782496456,31.560874602404823,3.40625903026741,-61.5
1771528719.0331976,0.3835022026287549,1.5168147754424595,-8.014825150874902,-1.167270991149503,-0.7776613377700204,9.779282415746694,0.0015425184684899414,-2.1456151824283196e-05,0.0,31.560874602404823,3.40625903026741,-61.5
1771528719.0452683,0.3835022026287549,1.5168147754424595,-8.014825150874902,-1.167270991149503,-0.7776613377700204,9.779282415746694,0.0015425184684899414,-2.1456151824283196e-05,0.0,31.560874602404823,3.40625903026741,-61.5
1771528719.0576744,0.3835022026287549,1.5168147754424595,-8.014825150874902,-1.168370498622322,-0.7770232981842143,9.779522455695366,2.145615182428316e-05,0.0015425184684899414,0.0,31.560874602404823,3.40625903026741,-61.5
1771528719.0708828,0.3835022026287549,1.5168147754424595,-8.014825150874902,-1.168370498622322,-0.7770232981842143,9.779522455695366,2.145615182428316e-05,0.0015425184684899414,0.0,31.560874602404823,3.40625903026741,-61.5
1771528719.0822542,0.3835022026287549,1.5168147754424595,-8.014825150874902,-1.1691022085631797,-0.7765986899672295,9.779682199599785,2.145615182428316e-05,0.0015425184684899414,-0.001090830782496456,30.275064816151264,3.1147552677280985,-60.25
1771528719.094216,0.3835022026287549,1.5168147754424595,-8.014825150874902,-1.1671911325546496,-0.7739838939872574,9.779788507383719,2.145615182428316e-05,0.0015425184684899414,0.0,30.275064816151264,3.1147552677280985,-60.25
1771528719.108893,0.3835022026287549,1.5168147754424595,-8.014825150874902,-1.1671911325546496,-0.7739838939872574,9.779788507383719,2.145615182428316e-05,0.0015425184684899414,0.0,30.275064816151264,3.1147552677280985,-60.25
1771528719.1234784,0.3835022026287549,1.5168147754424595,-8.014825150874902,-1.1659193328190907,-0.772243776471771,9.776514142319073,-0.0007390750065085459,0.0023245057786470537,0.0,30.275064816151264,3.1147552677280985,-60.25
1771528719.1378229,0.3835022026287549,1.5168147754424595,-8.014825150874902,-1.1650729643020101,-0.7710857477036012,9.774335088945605,-2.145615182428316e-05,-0.0015425184684899414,0.0,30.291046326424865,4.263692642579041,-60.25
1771528719.149362,0.3835022026287549,1.5168147754424595,-8.014825150874902,-1.1650729643020101,-0.7710857477036012,9.774335088945605,-2.145615182428316e-05,-0.0015425184684899414,0.0,30.291046326424865,4.263692642579041,-60.25
1771528719.1616216,0.3835022026287549,1.5168147754424595,-8.014825150874902,-1.1621116947080135,-0.76798286853966,9.772884953267184,-0.0007605311583328291,0.0007819873101571123,0.0,30.291046326424865,4.263692642579041,-60.25
1771528719.1750474,0.3835022026287549,1.5168147754424595,-8.014825150874902,-1.1601410028727575,-0.7659179371174886,9.771919904172272,-0.0015425184684899414,2.1456151824283196e-05,0.001090830782496456,30.291046326424865,4.263692642579041,-60.25
1771528719.1929398,0.3835022026287549,1.5168147754424595,-8.014825150874902,-1.1601410028727575,-0.7659179371174886,9.771919904172272,-0.0015425184684899414,2.1456151824283196e-05,0.001090830782496456,30.291046326424865,4.263692642579041,-60.25
1771528719.2141092,0.3835022026287549,1.5168147754424595,-8.014825150874902,-1.1588295294704647,-0.7645437483228288,9.774622786487232,0.0007605311583328291,-0.0007819873101571123,0.001090830782496456,31.118975612077534,3.4124057649880264,-60.75
1771528719.2257743,0.3835022026287549,1.5168147754424595,-8.014825150874902,-1.1603547793717923,-0.7659614649854305,9.773076412767344,-0.0007819873101571123,-0.0007605311583328291,0.002181661564992912,31.118975612077534,3.4124057649880264,-60.75
1771528719.2385838,0.3835022026287549,1.5168147754424595,-8.014825150874902,-1.1603547793717923,-0.7659614649854305,9.773076412767344,-0.0007819873101571123,-0.0007605311583328291,0.002181661564992912,31.118975612077534,3.4124057649880264,-60.75
1771528719.25058,0.3835022026287549,1.5168147754424595,-8.014825150874902,-1.161369816142968,-0.7669049395874591,9.775392430038204,-0.0007605311583328291,0.0007819873101571123,-0.001090830782496456,31.118975612077534,3.4124057649880264,-60.75
1771528719.2671423,0.3835022026287549,1.5168147754424595,-8.014825150874902,-1.1597130878207285,-0.7699308321962427,9.780278825367674,-0.0007819873101571123,-0.0007605311583328291,0.0,30.275064816151264,3.1147552677280985,-61.5
1771528719.2846446,0.3835022026287549,1.5168147754424595,-8.014825150874902,-1.1597130878207285,-0.7699308321962427,9.780278825367674,-0.0007819873101571123,-0.0007605311583328291,0.0,30.275064816151264,3.1147552677280985,-61.5
1771528719.296721,0.3835022026287549,1.5168147754424595,-8.014825150874902,-1.163406595230017,-0.7766089778354592,9.783530666874823,-0.0015425184684899414,2.1456151824283196e-05,0.0,30.275064816151264,3.1147552677280985,-61.5
1771528719.3129306,0.3835022026287549,1.5168147754424595,-8.014825150874902,-1.1610685415508466,-0.7763887612490769,9.78234961936506,2.145615182428316e-05,0.0015425184684899414,-0.001090830782496456,30.275064816151264,3.1147552677280985,-61.5
1771528719.3247864,0.3835022026287549,1.5168147754424595,-8.014825150874902,-1.1610685415508466,-0.7763887612490769,9.78234961936506,2.145615182428316e-05,0.0015425184684899414,-0.001090830782496456,30.275064816151264,3.1147552677280985,-61.5
1771528719.3387883,0.3835022026287549,1.5168147754424595,-8.014825150874902,-1.1618448168998825,-0.7738441887703844,9.78156364544048,-0.0007605311583328291,0.0007819873101571123,0.0,31.081547121237488,3.8991093278201023,-60.75
1771528719.3521922,0.3835022026287549,1.5168147754424595,-8.014825150874902,-1.1618448168998825,-0.7738441887703844,9.78156364544048,-0.0007605311583328291,0.0007819873101571123,0.0,31.081547121237488,3.8991093278201023,-60.75
1771528719.365759,0.3835022026287549,1.5168147754424595,-8.014825150874902,-1.16229562262742,-0.767420559455363,9.784385700280895,0.0007819873101571123,0.0007605311583328291,-0.002181661564992912,31.081547121237488,3.8991093278201023,-60.75
1771528719.3840535,0.3835022026287549,1.5168147754424595,-8.014825150874902,-1.1649936496037014,-0.7654779298576107,9.789608857960092,0.0,0.0,0.002181661564992912,31.081547121237488,3.8991093278201023,-60.75
1771528719.3959718,0.3835022026287549,1.5168147754424595,-8.014825150874902,-1.1649936496037014,-0.7654779298576107,9.789608857960092,0.0,0.0,0.002181661564992912,31.081547121237488,3.8991093278201023,-60.75
1771528719.4078255,0.3835022026287549,1.5168147754424595,-8.014825150874902,-1.1644569324627276,-0.7665831523613363,9.793084811049104,-2.145615182428316e-05,-0.0015425184684899414,0.001090830782496456,30.275064816151264,3.1147552677280985,-61.0625
1771528719.419209,0.3835022026287549,1.5168147754424595,-8.014825150874902,-1.1644569324627276,-0.7665831523613363,9.793084811049104,-2.145615182428316e-05,-0.0015425184684899414,0.001090830782496456,30.275064816151264,3.1147552677280985,-61.0625
1771528719.4306831,0.3835022026287549,1.5168147754424595,-8.014825150874902,-1.1617675292461798,-0.7697166863918568,9.788707795586262,-0.0015639746203142246,-0.0015210623166656582,0.001090830782496456,30.275064816151264,3.1147552677280985,-61.0625
1771528719.4432127,0.3835022026287549,1.5168147754424595,-8.014825150874902,-1.157579740647734,-0.7694697943305464,9.785794940690208,-0.0007605311583328291,0.0007819873101571123,0.0,30.275064816151264,3.1147552677280985,-61.0625
1771528719.454831,0.3835022026287549,1.5168147754424595,-8.014825150874902,-1.157579740647734,-0.7694697943305464,9.785794940690208,-0.0007605311583328291,0.0007819873101571123,0.0,30.275064816151264,3.1147552677280985,-61.0625
1771528719.4677851,0.3835022026287549,1.5168147754424595,-8.014825150874902,-1.1547928141161323,-0.7693054904217095,9.780511356588285,0.0,0.0,0.0,30.820095767873486,4.167936762848845,-60.25
1771528719.480978,0.3835022026287549,1.5168147754424595,-8.014825150874902,-1.1547928141161323,-0.7693054904217095,9.780511356588285,0.0,0.0,0.0,30.820095767873486,4.167936762848845,-60.25
1771528719.492165,0.3835022026287549,1.5168147754424595,-8.014825150874902,-1.1576683903965492,-0.7691303511600911,9.776995190389957,-0.0007390750065085459,0.0023245057786470537,0.0,30.820095767873486,4.167936762848845,-60.25
1771528719.5072784,0.3835022026287549,1.5168147754424595,-8.014825150874902,-1.1619800750893103,-0.7713460218926709,9.774655221063119,0.0,0.0,0.001090830782496456,30.820095767873486,4.167936762848845,-60.25
1771528719.5186877,0.3835022026287549,1.5168147754424595,-8.014825150874902,-1.1619800750893103,-0.7713460218926709,9.774655221063119,0.0,0.0,0.001090830782496456,30.820095767873486,4.167936762848845,-60.25
1771528719.5309267,0.3835022026287549,1.5168147754424595,-8.014825150874902,-1.1624514322872335,-0.7704883020597858,9.77309799761528,0.0015425184684899414,-2.1456151824283196e-05,-0.002181661564992912,29.81171884525753,4.756542940131734,-60.75
1771528719.5423853,0.3835022026287549,1.5168147754424595,-8.014825150874902,-1.1624514322872335,-0.7704883020597858,9.77309799761528,0.0015425184684899414,-2.1456151824283196e-05,-0.002181661564992912,29.81171884525753,4.756542940131734,-60.75
1771528719.5534647,0.3835022026287549,1.5168147754424595,-8.014825150874902,-1.1651631360374817,-0.7722497230471123,9.772061682806067,2.145615182428316e-05,0.0015425184684899414,-0.004363323129985824,29.81171884525753,4.756542940131734,-60.75
1771528719.564491,0.3835022026287549,1.5168147754424595,-8.014825150874902,-1.1645697237911208,-0.7710897050830632,9.77137202687693,-0.0007819873101571123,-0.0007605311583328291,-0.002181661564992912,29.81171884525753,4.756542940131734,-60.75
1771528719.5753746,0.3835022026287549,1.5168147754424595,-8.014825150874902,-1.1645697237911208,-0.7710897050830632,9.77137202687693,-0.0007819873101571123,-0.0007605311583328291,-0.002181661564992912,29.81171884525753,4.756542940131734,-60.75
1771528719.5867214,0.3835022026287549,1.5168147754424595,-8.014825150874902,-1.1642406114156991,-0.7750479708414267,9.767567956852734,-0.0015425184684899414,2.1456151824283196e-05,-0.001090830782496456,30.857524258713536,3.6812332000167682,-62.0
1771528719.597631,0.3835022026287549,1.5168147754424595,-8.014825150874902,-1.1642406114156991,-0.7750479708414267,9.767567956852734,-0.0015425184684899414,2.1456151824283196e-05,-0.001090830782496456,30.857524258713536,3.6812332000167682,-62.0
1771528719.6086502,0.3835022026287549,1.5168147754424595,-8.014825150874902,-1.1616235700058466,-0.7753499285321389,9.765036390745877,-0.0007819873101571123,-0.0007605311583328291,-0.002181661564992912,30.857524258713536,3.6812332000167682,-62.0
1771528719.6195872,0.3835022026287549,1.5168147754424595,-8.014825150874902,-1.1616235700058466,-0.7753499285321389,9.765036390745877,-0.0007819873101571123,-0.0007605311583328291,-0.002181661564992912,30.857524258713536,3.6812332000167682,-62.0
1771528719.6307368,0.3835022026287549,1.5168147754424595,-8.014825150874902,-1.159881958181858,-0.7755508780022194,9.770041885195848,-0.0007819873101571123,-0.0007605311583328291,0.002181661564992912,30.857524258713536,3.6812332000167682,-62.0
1771528719.6418371,0.3835022026287549,1.5168147754424595,-8.014825150874902,-1.1587229349680723,-0.7756846076298053,9.776718097544588,-0.0007819873101571123,-0.0007605311583328291,-0.001090830782496456,30.29719306114548,4.7055916329063265,-61.0625
1771528719.6527708,0.3835022026287549,1.5168147754424595,-8.014825150874902,-1.1587229349680723,-0.7756846076298053,9.776718097544588,-0.0007819873101571123,-0.0007605311583328291,-0.001090830782496456,30.29719306114548,4.7055916329063265,-61.0625
1771528719.6637685,0.3835022026287549,1.5168147754424595,-8.014825150874902,-1.1579516179664355,-0.775773603203106,9.777815930577177,-0.001585430772138508,-0.0030635807851555996,0.001090830782496456,30.29719306114548,4.7055916329063265,-61.0625
1771528719.6750474,0.3835022026287549,1.5168147754424595,-8.014825150874902,-1.1574383151180219,-0.7758328287629919,9.778546526196765,-0.0015210623166656582,0.0015639746203142246,-0.001090830782496456,30.29719306114548,4.7055916329063265,-61.0625
1771528719.6859024,0.3835022026287549,1.5168147754424595,-8.014825150874902,-1.1574383151180219,-0.7758328287629919,9.778546526196765,-0.0015210623166656582,0.0015639746203142246,-0.001090830782496456,30.29719306114548,4.7055916329063265,-61.0625
1771528719.696965,0.3835022026287549,1.5168147754424595,-8.014825150874902,-1.157096717806371,-0.775872242711503,9.772342506005675,-0.0007605311583328291,0.0007819873101571123,0.0,30.820095767873486,4.167936762848845,-60.0
1771528719.7078474,0.3835022026287549,1.5168147754424595,-8.014825150874902,-1.157096717806371,-0.775872242711503,9.772342506005675,-0.0007605311583328291,0.0007819873101571123,0.0,30.820095767873486,4.167936762848845,-60.0
1771528719.719716,0.3835022026287549,1.5168147754424595,-8.014825150874902,-1.1592674094117947,-0.7782306962087077,9.77490402328659,0.0007819873101571123,0.0007605311583328291,-0.002181661564992912,30.820095767873486,4.167936762848845,-60.0
1771528719.7321296,0.3835022026287549,1.5168147754424595,-8.014825150874902,-1.1607119804269903,-0.7798002206654455,9.769918461008377,-0.0038884803989612782,-0.002260137323174204,0.001090830782496456,30.820095767873486,4.167936762848845,-60.0
1771528719.7431695,0.3835022026287549,1.5168147754424595,-8.014825150874902,-1.1607119804269903,-0.7798002206654455,9.769918461008377,-0.0038884803989612782,-0.002260137323174204,0.001090830782496456,30.820095767873486,4.167936762848845,-60.0
1771528719.7554154,0.3835022026287549,1.5168147754424595,-8.014825150874902,-1.1640055502554405,-0.7784467008582323,9.776635960126564,0.0008034434619813955,0.0023030496268227705,0.001090830782496456,30.07317019862153,4.487715505102992,-60.75
1771528719.766352,0.3835022026287549,1.5168147754424595,-8.014825150874902,-1.1640055502554405,-0.7784467008582323,9.776635960126564,0.0008034434619813955,0.0023030496268227705,0.001090830782496456,30.07317019862153,4.487715505102992,-60.75
1771528719.7774675,0.3835022026287549,1.5168147754424595,-8.014825150874902,-1.1638651602299352,-0.7799439693467741,9.771071045628377,-0.0023030496268227705,0.0008034434619813955,-0.002181661564992912,30.07317019862153,4.487715505102992,-60.75
1771528719.7884884,0.3835022026287549,1.5168147754424595,-8.014825150874902,-1.1613737114357854,-0.7786081608455606,9.77740299231596,-2.145615182428316e-05,-0.0015425184684899414,0.0,30.07317019862153,4.487715505102992,-60.75
1771528719.7995365,0.3835022026287549,1.5168147754424595,-8.014825150874902,-1.1613737114357854,-0.7786081608455606,9.77740299231596,-2.145615182428316e-05,-0.0015425184684899414,0.0,30.07317019862153,4.487715505102992,-60.75
1771528719.8106651,0.3835022026287549,1.5168147754424595,-8.014825150874902,-1.1573834561398322,-0.7801172160103973,9.771581496982108,0.0,0.0,0.0,30.07317019862153,4.487715505102992,-60.75
1771528719.8215632,0.3835022026287549,1.5168147754424595,-8.014825150874902,-1.1573834561398322,-0.7801172160103973,9.771581496982108,0.0,0.0,0.0,30.07317019862153,4.487715505102992,-60.75
1771528719.832681,0.3835022026287549,1.5168147754424595,-8.014825150874902,-1.152329965014012,-0.7787892514105922,9.767707356867795,-2.145615182428316e-05,-0.0015425184684899414,-0.001090830782496456,31.081547121237488,3.8991093278201023,-61.0625
1771528719.843626,0.3835022026287549,1.5168147754424595,-8.014825150874902,-1.153697167876162,-0.7778397089580761,9.7651291598987,-0.0015425184684899414,2.1456151824283196e-05,0.001090830782496456,31.081547121237488,3.8991093278201023,-61.0625
1771528719.8547509,0.3835022026287549,1.5168147754424595,-8.014825150874902,-1.153697167876162,-0.7778397089580761,9.7651291598987,-0.0015425184684899414,2.1456151824283196e-05,0.001090830782496456,31.081547121237488,3.8991093278201023,-61.0625
1771528719.8660321,0.3835022026287549,1.5168147754424595,-8.014825150874902,-1.1522090053078309,-0.7748755751082578,9.770103622030753,-0.0015425184684899414,2.1456151824283196e-05,0.002181661564992912,31.081547121237488,3.8991093278201023,-61.0625
1771528719.8774424,0.3835022026287549,1.5168147754424595,-8.014825150874902,-1.1522090053078309,-0.7748755751082578,9.770103622030753,-0.0015425184684899414,2.1456151824283196e-05,0.002181661564992912,31.081547121237488,3.8991093278201023,-61.0625
1771528719.8885972,0.3835022026287549,1.5168147754424595,-8.014825150874902,-1.151350243433836,-0.7823634666531254,9.773414071011251,-0.0015639746203142246,-0.0015210623166656582,0.0,30.543892251180004,3.3762066210921,-60.75
1771528719.8995373,0.3835022026287549,1.5168147754424595,-8.014825150874902,-1.151350243433836,-0.7823634666531254,9.773414071011251,-0.0015639746203142246,-0.0015210623166656582,0.0,30.543892251180004,3.3762066210921,-60.75
1771528719.9121616,0.3835022026287549,1.5168147754424595,-8.014825150874902,-1.1507787469996915,-0.7873465748310057,9.782307361242275,-0.003106493088804166,-0.001499606164841375,0.0,30.543892251180004,3.3762066210921,-60.75
1771528719.9234574,0.3835022026287549,1.5168147754424595,-8.014825150874902,-1.155062870416308,-0.7858667360575485,9.784880634839139,0.0015639746203142246,0.0015210623166656582,0.0,30.543892251180004,3.3762066210921,-60.75
1771528719.9343548,0.3835022026287549,1.5168147754424595,-8.014825150874902,-1.155062870416308,-0.7858667360575485,9.784880634839139,0.0015639746203142246,0.0015210623166656582,0.0,30.543892251180004,3.3762066210921,-60.75
1771528719.945467,0.3835022026287549,1.5168147754424595,-8.014825150874902,-1.1555158858928365,-0.7825496959299418,9.786593119672503,-0.0007819873101571123,-0.0007605311583328291,0.0,30.857524258713536,3.6812332000167682,-61.5625
1771528719.9563842,0.3835022026287549,1.5168147754424595,-8.014825150874902,-1.1555158858928365,-0.7825496959299418,9.786593119672503,-0.0007819873101571123,-0.0007605311583328291,0.0,30.857524258713536,3.6812332000167682,-61.5625
1771528719.967631,0.3835022026287549,1.5168147754424595,-8.014825150874902,-1.1581495865867049,-0.7779442219783502,9.787732759199399,0.002345961930471337,0.0022815934749984873,-0.001090830782496456,30.857524258713536,3.6812332000167682,-61.5625
1771528719.978632,0.3835022026287549,1.5168147754424595,-8.014825150874902,-1.1599680818237919,-0.7796095752652694,9.7818009531593,0.0,0.0,0.0,30.857524258713536,3.6812332000167682,-61.5625
1771528719.9896708,0.3835022026287549,1.5168147754424595,-8.014825150874902,-1.1599680818237919,-0.7796095752652694,9.7818009531593,0.0,0.0,0.0,30.857524258713536,3.6812332000167682,-61.5625
1771528720.0019128,0.3835022026287549,1.5168147754424595,-8.014825150874902,-1.1611782700901505,-0.780717849274499,9.77785340250223,-0.0015425184684899414,2.1456151824283196e-05,0.0,28.997860458506565,3.441910091646987,-60.0
1771528720.0129066,0.3835022026287549,1.5168147754424595,-8.014825150874902,-1.1611782700901505,-0.780717849274499,9.77785340250223,-0.0015425184684899414,2.1456151824283196e-05,0.0,28.997860458506565,3.441910091646987,-60.0
1771528720.0242755,0.3835022026287549,1.5168147754424595,-8.014825150874902,-1.1595856160622884,-0.7791231692926565,9.775226351636979,0.0015639746203142246,0.0015210623166656582,-0.003272492347489368,28.997860458506565,3.441910091646987,-60.0
1771528720.0351853,0.3835022026287549,1.5168147754424595,-8.014825150874902,-1.1585257225978571,-0.7780619275784829,9.773478078632236,-0.0023245057786470537,-0.0007390750065085459,0.0,28.997860458506565,3.441910091646987,-60.0
1771528720.0461133,0.3835022026287549,1.5168147754424595,-8.014825150874902,-1.1585257225978571,-0.7780619275784829,9.773478078632236,-0.0023245057786470537,-0.0007390750065085459,0.0,28.997860458506565,3.441910091646987,-60.0
1771528720.0573459,0.3835022026287549,1.5168147754424595,-8.014825150874902,-1.157820375337064,-0.777355683072547,9.779004845891707,-0.0008034434619813955,-0.0023030496268227705,0.0,30.7543922973186,2.621904970175406,-61.5625
1771528720.0682957,0.3835022026287549,1.5168147754424595,-8.014825150874902,-1.157820375337064,-0.777355683072547,9.779004845891707,-0.0008034434619813955,-0.0023030496268227705,0.0,30.7543922973186,2.621904970175406,-61.5625
1771528720.0801237,0.3835022026287549,1.5168147754424595,-8.014825150874902,-1.1573509746142512,-0.7768856852431146,9.782682847764852,-0.0030850369369798828,4.291230364856639e-05,-0.001090830782496456,30.7543922973186,2.621904970175406,-61.5625
1771528720.091041,0.3835022026287549,1.5168147754424595,-8.014825150874902,-1.1569727968310868,-0.7718426621826587,9.781785405218136,-0.0015210623166656582,0.0015639746203142246,0.0,30.7543922973186,2.621904970175406,-61.5625
1771528720.101929,0.3835022026287549,1.5168147754424595,-8.014825150874902,-1.1569727968310868,-0.7718426621826587,9.781785405218136,-0.0015210623166656582,0.0015639746203142246,0.0,30.7543922973186,2.621904970175406,-61.5625
1771528720.113055,0.3835022026287549,1.5168147754424595,-8.014825150874902,-1.1567869205865957,-0.7732168314253727,9.777843055521066,-0.0007605311583328291,0.0007819873101571123,-0.001090830782496456,30.7543922973186,2.621904970175406,-61.5625
1771528720.1239698,0.3835022026287549,1.5168147754424595,-8.014825150874902,-1.1567869205865957,-0.7732168314253727,9.777843055521066,-0.0007605311583328291,0.0007819873101571123,-0.001090830782496456,30.7543922973186,2.621904970175406,-61.5625
1771528720.1353157,0.3835022026287549,1.5168147754424595,-8.014825150874902,-1.1589954459770138,-0.7717333049054871,9.775219465836598,-0.0007819873101571123,-0.0007605311583328291,0.001090830782496456,30.013613462787262,3.3835827027568404,-61.5625
1771528720.1463926,0.3835022026287549,1.5168147754424595,-8.014825150874902,-1.1604651949534917,-0.7707460345785803,9.77681860791632,-0.0007819873101571123,-0.0007605311583328291,0.001090830782496456,30.013613462787262,3.3835827027568404,-61.5625
1771528720.1573286,0.3835022026287549,1.5168147754424595,-8.014825150874902,-1.1604651949534917,-0.7707460345785803,9.77681860791632,-0.0007819873101571123,-0.0007605311583328291,0.001090830782496456,30.013613462787262,3.3835827027568404,-61.5625
1771528720.1690838,0.3835022026287549,1.5168147754424595,-8.014825150874902,-1.1638413172796014,-0.7724212411593091,9.77788281910679,0.0,0.0,-0.001090830782496456,30.013613462787262,3.3835827027568404,-61.5625
1771528720.1800869,0.3835022026287549,1.5168147754424595,-8.014825150874902,-1.1638413172796014,-0.7724212411593091,9.77788281910679,0.0,0.0,-0.001090830782496456,30.013613462787262,3.3835827027568404,-61.5625
1771528720.19152,0.3835022026287549,1.5168147754424595,-8.014825150874902,-1.161292047372999,-0.7688716245159941,9.775245928058709,-0.003106493088804166,-0.001499606164841375,0.0,30.596072905349533,3.95006063504551,-60.75
1771528720.2024417,0.3835022026287549,1.5168147754424595,-8.014825150874902,-1.1643915783282368,-0.7711738422011903,9.773491106522215,0.0023245057786470537,0.0007390750065085459,-0.003272492347489368,30.596072905349533,3.95006063504551,-60.75
1771528720.2133312,0.3835022026287549,1.5168147754424595,-8.014825150874902,-1.1643915783282368,-0.7711738422011903,9.773491106522215,0.0023245057786470537,0.0007390750065085459,-0.003272492347489368,30.596072905349533,3.95006063504551,-60.75
1771528720.2243032,0.3835022026287549,1.5168147754424595,-8.014825150874902,-1.164122057600165,-0.7751039631536671,9.772323292392318,0.0,0.0,0.0,30.596072905349533,3.95006063504551,-60.75
1771528720.2351992,0.3835022026287549,1.5168147754424595,-8.014825150874902,-1.164122057600165,-0.7751039631536671,9.772323292392318,0.0,0.0,0.0,30.596072905349533,3.95006063504551,-60.75
1771528720.2465332,0.3835022026287549,1.5168147754424595,-8.014825150874902,-1.1639426945663771,-0.777719414745213,9.771546125134211,-2.145615182428316e-05,-0.0015425184684899414,-0.001090830782496456,29.759538191087998,4.182688926178324,-60.75
1771528720.2577655,0.3835022026287549,1.5168147754424595,-8.014825150874902,-1.1638233304710077,-0.779459968562878,9.777719152420108,-0.002345961930471337,-0.0022815934749984873,0.002181661564992912,29.759538191087998,4.182688926178324,-60.75
1771528720.268676,0.3835022026287549,1.5168147754424595,-8.014825150874902,-1.1638233304710077,-0.779459968562878,9.777719152420108,-0.002345961930471337,-0.0022815934749984873,0.002181661564992912,29.759538191087998,4.182688926178324,-60.75
1771528720.2796981,0.3835022026287549,1.5168147754424595,-8.014825150874902,-1.1612800773528058,-0.7735558189753324,9.78182723312164,0.0015425184684899414,-2.1456151824283196e-05,0.001090830782496456,29.759538191087998,4.182688926178324,-60.75
1771528720.2906325,0.3835022026287549,1.5168147754424595,-8.014825150874902,-1.1612800773528058,-0.7735558189753324,9.78182723312164,0.0015425184684899414,-2.1456151824283196e-05,0.001090830782496456,29.759538191087998,4.182688926178324,-60.75
1771528720.302177,0.3835022026287549,1.5168147754424595,-8.014825150874902,-1.1643836124135123,-0.7742911212879994,9.784561114938239,-0.0015425184684899414,2.1456151824283196e-05,0.001090830782496456,29.759538191087998,4.182688926178324,-60.75
1771528720.3132637,0.3835022026287549,1.5168147754424595,-8.014825150874902,-1.166448980327654,-0.7747804567632142,9.786380482747726,-0.0015425184684899414,2.1456151824283196e-05,-0.001090830782496456,31.081547121237488,3.8991093278201023,-61.0625
1771528720.3242064,0.3835022026287549,1.5168147754424595,-8.014825150874902,-1.166448980327654,-0.7747804567632142,9.786380482747726,-0.0015425184684899414,2.1456151824283196e-05,-0.001090830782496456,31.081547121237488,3.8991093278201023,-61.0625
1771528720.3353314,0.3835022026287549,1.5168147754424595,-8.014825150874902,-1.167823459602844,-0.7751061040557342,9.787591251701269,0.0015639746203142246,0.0015210623166656582,-0.001090830782496456,31.081547121237488,3.8991093278201023,-61.0625
1771528720.3462937,0.3835022026287549,1.5168147754424595,-8.014825150874902,-1.167823459602844,-0.7751061040557342,9.787591251701269,0.0015639746203142246,0.0015210623166656582,-0.001090830782496456,31.081547121237488,3.8991093278201023,-61.0625
1771528720.3573406,0.3835022026287549,1.5168147754424595,-8.014825150874902,-1.168803957052226,-0.7800530634463763,9.788397004914676,0.0,0.0,0.002181661564992912,31.081547121237488,3.8991093278201023,-61.0625
1771528720.3682315,0.3835022026287549,1.5168147754424595,-8.014825150874902,-1.168803957052226,-0.7800530634463763,9.788397004914676,0.0,0.0,0.002181661564992912,31.081547121237488,3.8991093278201023,-61.0625
1771528720.3795044,0.3835022026287549,1.5168147754424595,-8.014825150874902,-1.1646604255510444,-0.778680761750185,9.782243001262707,0.0,0.0,0.0,29.759538191087998,4.182688926178324,-61.0625
1771528720.3904645,0.3835022026287549,1.5168147754424595,-8.014825150874902,-1.1666331963784764,-0.7777017134553017,9.778147580577047,-0.0015425184684899414,2.1456151824283196e-05,0.002181661564992912,29.759538191087998,4.182688926178324,-61.0625
1771528720.401557,0.3835022026287549,1.5168147754424595,-8.014825150874902,-1.1666331963784764,-0.7777017134553017,9.778147580577047,-0.0015425184684899414,2.1456151824283196e-05,0.002181661564992912,29.759538191087998,4.182688926178324,-61.0625
1771528720.4126072,0.3835022026287549,1.5168147754424595,-8.014825150874902,-1.1679460533268382,-0.7770501677517431,9.778767235566905,-0.0030850369369798828,4.291230364856639e-05,0.001090830782496456,29.759538191087998,4.182688926178324,-61.0625
1771528720.42351,0.3835022026287549,1.5168147754424595,-8.014825150874902,-1.171151968915153,-0.7742185505638317,9.779179609040655,-0.0007605311583328291,0.0007819873101571123,0.0,29.759538191087998,4.182688926178324,-61.0625
1771528720.4345891,0.3835022026287549,1.5168147754424595,-8.014825150874902,-1.171151968915153,-0.7742185505638317,9.779179609040655,-0.0007605311583328291,0.0007819873101571123,0.0,29.759538191087998,4.182688926178324,-61.0625
1771528720.4456372,0.3835022026287549,1.5168147754424595,-8.014825150874902,-1.170953245972,-0.7747321617569487,9.779454038980923,0.0,0.0,-0.001090830782496456,30.820095767873486,4.167936762848845,-61.5625
1771528720.456762,0.3835022026287549,1.5168147754424595,-8.014825150874902,-1.170953245972,-0.7747321617569487,9.779454038980923,0.0,0.0,-0.001090830782496456,30.820095767873486,4.167936762848845,-61.5625
1771528720.4680374,0.3835022026287549,1.5168147754424595,-8.014825150874902,-1.1684229772727768,-0.7727417403138019,9.779636669040588,0.0007819873101571123,0.0007605311583328291,-0.001090830782496456,30.820095767873486,4.167936762848845,-61.5625
1771528720.4791493,0.3835022026287549,1.5168147754424595,-8.014825150874902,-1.1684229772727768,-0.7727417403138019,9.779636669040588,0.0007819873101571123,0.0007605311583328291,-0.001090830782496456,30.820095767873486,4.167936762848845,-61.5625
1771528720.4917383,0.3835022026287549,1.5168147754424595,-8.014825150874902,-1.1668049085640795,-0.7761473818330407,9.779758207305184,-0.0015425184684899414,2.1456151824283196e-05,-0.001090830782496456,30.820095767873486,4.167936762848845,-61.5625
1771528720.5047932,0.3835022026287549,1.5168147754424595,-8.014825150874902,-1.165728101913453,-0.7784137982205857,9.78318420136992,-0.0015210623166656582,0.0015639746203142246,0.0,30.857524258713536,3.6812332000167682,-61.5625
1771528720.5157843,0.3835022026287549,1.5168147754424595,-8.014825150874902,-1.165728101913453,-0.7784137982205857,9.78318420136992,-0.0015210623166656582,0.0015639746203142246,0.0,30.857524258713536,3.6812332000167682,-61.5625
1771528720.5275946,0.3835022026287549,1.5168147754424595,-8.014825150874902,-1.167343723070933,-0.7775240522085314,9.782119050441821,-0.0007819873101571123,-0.0007605311583328291,-0.001090830782496456,30.857524258713536,3.6812332000167682,-61.5625
1771528720.5385418,0.3835022026287549,1.5168147754424595,-8.014825150874902,-1.1660208801031293,-0.7745997122218703,9.778065092690367,4.291230364856632e-05,0.0030850369369798828,0.0,30.857524258713536,3.6812332000167682,-61.5625
1771528720.5494275,0.3835022026287549,1.5168147754424595,-8.014825150874902,-1.1660208801031293,-0.7745997122218703,9.778065092690367,4.291230364856632e-05,0.0030850369369798828,0.0,30.857524258713536,3.6812332000167682,-61.5625
1771528720.56053,-22.512208711390898,-0.11357164894621388,-8.684926582528046,-1.1651405428851804,-0.7726535966277656,9.775367229092451,-0.001585430772138508,-0.0030635807851555996,0.0,30.857524258713536,3.6812332000167682,-61.5625
1771528720.571447,-22.512208711390898,-0.11357164894621388,-8.684926582528046,-1.1651405428851804,-0.7726535966277656,9.775367229092451,-0.001585430772138508,-0.0030635807851555996,0.0,30.857524258713536,3.6812332000167682,-61.5625
1771528720.5833385,0.3835022026287549,1.5168147754424595,-8.014825150874902,-1.1622224643458932,-0.7737564992398599,9.773571831005148,-0.0015425184684899414,2.1456151824283196e-05,0.002181661564992912,30.857524258713536,3.6812332000167682,-60.75
1771528720.594347,0.3835022026287549,1.5168147754424595,-8.014825150874902,-1.1626785364755061,-0.7768226925627323,9.772377013633958,0.0007605311583328291,-0.0007819873101571123,-0.002181661564992912,30.857524258713536,3.6812332000167682,-60.75
1771528720.6052647,0.3835022026287549,1.5168147754424595,-8.014825150874902,-1.1626785364755061,-0.7768226925627323,9.772377013633958,0.0007605311583328291,-0.0007819873101571123,-0.002181661564992912,30.857524258713536,3.6812332000167682,-60.75
1771528720.6162236,0.3835022026287549,1.5168147754424595,-8.014825150874902,-1.1605840265826688,-0.7765309860127271,9.771581876020417,-0.0023245057786470537,-0.0007390750065085459,-0.001090830782496456,30.857524258713536,3.6812332000167682,-60.75
1771528720.627215,0.3835022026287549,1.5168147754424595,-8.014825150874902,-1.1605840265826688,-0.7765309860127271,9.771581876020417,-0.0023245057786470537,-0.0007390750065085459,-0.001090830782496456,30.857524258713536,3.6812332000167682,-60.75
1771528720.6395872,0.3835022026287549,1.5168147754424595,-8.014825150874902,-1.159190153646194,-0.7763368585622743,9.771052720820874,0.0,0.0,0.001090830782496456,30.857524258713536,3.6812332000167682,-60.75
1771528720.6508093,0.3835022026287549,1.5168147754424595,-8.014825150874902,-1.160594770732304,-0.7738096481121083,9.774045685653949,-0.0007819873101571123,-0.0007605311583328291,-0.002181661564992912,30.857524258713536,3.6812332000167682,-60.0
1771528720.661679,0.3835022026287549,1.5168147754424595,-8.014825150874902,-1.160594770732304,-0.7738096481121083,9.774045685653949,-0.0007819873101571123,-0.0007605311583328291,-0.002181661564992912,30.857524258713536,3.6812332000167682,-60.0
1771528720.6728523,0.3835022026287549,1.5168147754424595,-8.014825150874902,-1.1615295277125093,-0.7721278177883133,9.776037470316751,-2.145615182428316e-05,-0.0015425184684899414,0.0,30.857524258713536,3.6812332000167682,-60.0
1771528720.684387,0.3835022026287549,1.5168147754424595,-8.014825150874902,-1.1645496188413518,-0.7733408024498566,9.777362980760154,0.0,0.0,0.0,30.857524258713536,3.6812332000167682,-60.0
1771528720.6960475,0.3835022026287549,1.5168147754424595,-8.014825150874902,-1.1645496188413518,-0.7733408024498566,9.777362980760154,0.0,0.0,0.0,30.857524258713536,3.6812332000167682,-60.0
1771528720.7070632,0.3835022026287549,1.5168147754424595,-8.014825150874902,-1.1666252525966503,-0.7788782749473757,9.778245093153318,0.0008034434619813955,0.0023030496268227705,-0.001090830782496456,30.282440897816002,3.6450340561208416,-60.75
1771528720.7180092,0.3835022026287549,1.5168147754424595,-8.014825150874902,-1.1666252525966503,-0.7788782749473757,9.778245093153318,0.0008034434619813955,0.0023030496268227705,-0.001090830782496456,30.282440897816002,3.6450340561208416,-60.75
1771528720.7290556,0.3835022026287549,1.5168147754424595,-8.014825150874902,-1.1680065636744532,-0.7825634010368537,9.775487017389807,0.0,0.0,-0.002181661564992912,30.282440897816002,3.6450340561208416,-60.75
1771528720.7400029,0.3835022026287549,1.5168147754424595,-8.014825150874902,-1.1665277899660398,-0.7826835873290926,9.776996660486235,0.0007605311583328291,-0.0007819873101571123,0.001090830782496456,30.282440897816002,3.6450340561208416,-60.75
1771528720.7514288,0.3835022026287549,1.5168147754424595,-8.014825150874902,-1.1665277899660398,-0.7826835873290926,9.776996660486235,0.0007605311583328291,-0.0007819873101571123,0.001090830782496456,30.282440897816002,3.6450340561208416,-60.75
1771528720.7627246,0.3835022026287549,1.5168147754424595,-8.014825150874902,-1.16314566178164,-0.7804313460092556,9.77800131110309,4.291230364856632e-05,0.0030850369369798828,-0.001090830782496456,30.282440897816002,3.6450340561208416,-60.75
1771528720.7736664,0.3835022026287549,1.5168147754424595,-8.014825150874902,-1.16314566178164,-0.7804313460092556,9.77800131110309,4.291230364856632e-05,0.0030850369369798828,-0.001090830782496456,30.282440897816002,3.6450340561208416,-60.75
1771528720.785972,0.3835022026287549,1.5168147754424595,-8.014825150874902,-1.1656251380109577,-0.7788667077244058,9.778669894865924,2.145615182428316e-05,0.0015425184684899414,0.001090830782496456,31.02321973234734,2.8833563235394073,-61.5625
1771528720.7970526,0.3835022026287549,1.5168147754424595,-8.014825150874902,-1.162544956988816,-0.7778912552696754,9.782459941598841,-0.0007605311583328291,0.0007819873101571123,-0.001090830782496456,31.02321973234734,2.8833563235394073,-61.5625
1771528720.8082178,0.3835022026287549,1.5168147754424595,-8.014825150874902,-1.162544956988816,-0.7778912552696754,9.782459941598841,-0.0007605311583328291,0.0007819873101571123,-0.001090830782496456,31.02321973234734,2.8833563235394073,-61.5625
1771528720.819625,0.3835022026287549,1.5168147754424595,-8.014825150874902,-1.16282735488121,-0.7748440817571348,9.778291951947361,-2.145615182428316e-05,-0.0015425184684899414,0.001090830782496456,31.02321973234734,2.8833563235394073,-61.5625
1771528720.830877,0.3835022026287549,1.5168147754424595,-8.014825150874902,-1.16282735488121,-0.7748440817571348,9.778291951947361,-2.145615182428316e-05,-0.0015425184684899414,0.001090830782496456,31.02321973234734,2.8833563235394073,-61.5625
1771528720.8433273,0.3835022026287549,1.5168147754424595,-8.014825150874902,-1.1606830635692542,-0.775214242624133,9.775518201393796,0.0007819873101571123,0.0007605311583328291,-0.003272492347489368,30.07317019862153,4.487715505102992,-60.75
1771528720.8546398,0.3835022026287549,1.5168147754424595,-8.014825150874902,-1.156923837699698,-0.7778586013465878,9.773672301385222,0.003106493088804166,0.001499606164841375,0.0,30.07317019862153,4.487715505102992,-60.75
1771528720.8658552,0.3835022026287549,1.5168147754424595,-8.014825150874902,-1.156923837699698,-0.7778586013465878,9.773672301385222,0.003106493088804166,0.001499606164841375,0.0,30.07317019862153,4.487715505102992,-60.75
1771528720.8772357,0.3835022026287549,1.5168147754424595,-8.014825150874902,-1.156820135677248,-0.7819506164917122,9.772443875549572,0.001585430772138508,0.0030635807851555996,-0.002181661564992912,30.07317019862153,4.487715505102992,-60.75
1771528720.8885763,0.3835022026287549,1.5168147754424595,-8.014825150874902,-1.1567511231397352,-0.7846738068599882,9.78166170700032,0.0008034434619813955,0.0023030496268227705,-0.001090830782496456,30.596072905349533,3.95006063504551,-60.75
1771528720.8995247,0.3835022026287549,1.5168147754424595,-8.014825150874902,-1.1567511231397352,-0.7846738068599882,9.78166170700032,0.0008034434619813955,0.0023030496268227705,-0.001090830782496456,30.596072905349533,3.95006063504551,-60.75
1771528720.910509,0.3835022026287549,1.5168147754424595,-8.014825150874902,-1.1590374200216942,-0.784088038829611,9.777760735738909,2.145615182428316e-05,0.0015425184684899414,-0.001090830782496456,30.596072905349533,3.95006063504551,-60.75
1771528720.9214451,0.3835022026287549,1.5168147754424595,-8.014825150874902,-1.1590374200216942,-0.784088038829611,9.777760735738909,2.145615182428316e-05,0.0015425184684899414,-0.001090830782496456,30.596072905349533,3.95006063504551,-60.75
1771528720.9337926,0.3835022026287549,1.5168147754424595,-8.014825150874902,-1.1580951074109103,-0.7766357480389107,9.775164682941146,-0.0007605311583328291,0.0007819873101571123,0.0,30.596072905349533,3.95006063504551,-60.75
1771528720.945034,0.3835022026287549,1.5168147754424595,-8.014825150874902,-1.1574680088947553,-0.7716763317652425,9.770091927096724,0.0015639746203142246,0.0015210623166656582,0.0,30.596072905349533,3.95006063504551,-60.75
1771528720.9559834,0.3835022026287549,1.5168147754424595,-8.014825150874902,-1.1574680088947553,-0.7716763317652425,9.770091927096724,0.0015639746203142246,0.0015210623166656582,0.0,30.596072905349533,3.95006063504551,-60.75
1771528720.966984,0.3835022026287549,1.5168147754424595,-8.014825150874902,-1.1570506818374036,-0.768375895635426,9.766716064748657,0.0,0.0,-0.001090830782496456,30.805343604544003,3.107379186063358,-61.0625
1771528720.9779215,0.3835022026287549,1.5168147754424595,-8.014825150874902,-1.15917097614302,-0.7685117162140737,9.771159689481511,0.0,0.0,-0.002181661564992912,30.805343604544003,3.107379186063358,-61.0625
1771528720.988892,0.3835022026287549,1.5168147754424595,-8.014825150874902,-1.15917097614302,-0.7685117162140737,9.771159689481511,0.0,0.0,-0.002181661564992912,30.805343604544003,3.107379186063358,-61.0625
1771528720.9999018,0.3835022026287549,1.5168147754424595,-8.014825150874902,-1.160647805163851,-0.7733323480471369,9.774116872102685,0.0,0.0,-0.001090830782496456,30.805343604544003,3.107379186063358,-61.0625
1771528721.0111432,0.3835022026287549,1.5168147754424595,-8.014825150874902,-1.160647805163851,-0.7733323480471369,9.774116872102685,0.0,0.0,-0.001090830782496456,30.805343604544003,3.107379186063358,-61.0625
1771528721.0224009,0.3835022026287549,1.5168147754424595,-8.014825150874902,-1.1592325975795175,-0.7742082007273013,9.776084844103181,-0.0007605311583328291,0.0007819873101571123,0.002181661564992912,30.291046326424865,4.263692642579041,-62.0
1771528721.0338817,0.3835022026287549,1.5168147754424595,-8.014825150874902,-1.158290792741048,-0.7747910709020353,9.780739619193143,2.145615182428316e-05,0.0015425184684899414,0.001090830782496456,30.291046326424865,4.263692642579041,-62.0
1771528721.0448246,0.3835022026287549,1.5168147754424595,-8.014825150874902,-1.158290792741048,-0.7747910709020353,9.780739619193143,2.145615182428316e-05,0.0015425184684899414,0.001090830782496456,30.291046326424865,4.263692642579041,-62.0
1771528721.05577,0.3835022026287549,1.5168147754424595,-8.014825150874902,-1.1623284800512022,-0.7703829228913635,9.78383732001827,0.0,0.0,0.002181661564992912,30.291046326424865,4.263692642579041,-62.0
1771528721.0666122,0.3835022026287549,1.5168147754424595,-8.014825150874902,-1.1623284800512022,-0.7703829228913635,9.78383732001827,0.0,0.0,0.002181661564992912,30.291046326424865,4.263692642579041,-62.0
1771528721.077645,0.3835022026287549,1.5168147754424595,-8.014825150874902,-1.1627490887431164,-0.7745776151881251,9.785898805313805,-0.0015425184684899414,2.1456151824283196e-05,0.0,31.081547121237488,3.8991093278201023,-60.0
1771528721.0888364,0.3835022026287549,1.5168147754424595,-8.014825150874902,-1.1630289991290783,-0.7773691360538367,9.783925589042363,-0.0015425184684899414,2.1456151824283196e-05,-0.002181661564992912,31.081547121237488,3.8991093278201023,-60.0
1771528721.0996535,0.3835022026287549,1.5168147754424595,-8.014825150874902,-1.1630289991290783,-0.7773691360538367,9.783925589042363,-0.0015425184684899414,2.1456151824283196e-05,-0.002181661564992912,31.081547121237488,3.8991093278201023,-60.0
1771528721.1106067,0.3835022026287549,1.5168147754424595,-8.014825150874902,-1.1608172555636964,-0.7768946380518833,9.78261243565599,0.0,0.0,-0.001090830782496456,31.081547121237488,3.8991093278201023,-60.0
1771528721.1214318,0.3835022026287549,1.5168147754424595,-8.014825150874902,-1.1608172555636964,-0.7768946380518833,9.78261243565599,0.0,0.0,-0.001090830782496456,31.081547121237488,3.8991093278201023,-60.0
1771528721.1324766,0.3835022026287549,1.5168147754424595,-8.014825150874902,-1.1593453649277297,-0.7765788649320734,9.778393435038923,0.0,0.0,0.001090830782496456,31.081547121237488,3.8991093278201023,-60.0
1771528721.1433063,0.3835022026287549,1.5168147754424595,-8.014825150874902,-1.1583658381515891,-0.7763687214482567,9.775585737257591,-0.0015639746203142246,-0.0015210623166656582,-0.001090830782496456,30.515069188948818,4.481568770382376,-60.0
1771528721.1541715,0.3835022026287549,1.5168147754424595,-8.014825150874902,-1.1583658381515891,-0.7763687214482567,9.775585737257591,-0.0015639746203142246,-0.0015210623166656582,-0.001090830782496456,30.515069188948818,4.481568770382376,-60.0
1771528721.166133,0.3835022026287549,1.5168147754424595,-8.014825150874902,-1.1577139740240987,-0.7762288733072332,9.773717245748154,0.0008034434619813955,0.0023030496268227705,-0.002181661564992912,30.515069188948818,4.481568770382376,-60.0
1771528721.1773918,0.3835022026287549,1.5168147754424595,-8.014825150874902,-1.1577139740240987,-0.7762288733072332,9.773717245748154,0.0008034434619813955,0.0023030496268227705,-0.002181661564992912,30.515069188948818,4.481568770382376,-60.0
1771528721.188725,0.3835022026287549,1.5168147754424595,-8.014825150874902,-1.1573459625747358,-0.7808660506867767,9.77247378552104,0.0007819873101571123,0.0007605311583328291,-0.001090830782496456,30.515069188948818,4.481568770382376,-60.0
1771528721.1998801,0.3835022026287549,1.5168147754424595,-8.014825150874902,-1.1573459625747358,-0.7808660506867767,9.77247378552104,0.0007819873101571123,0.0007605311583328291,-0.001090830782496456,30.515069188948818,4.481568770382376,-60.0
1771528721.2110653,0.3835022026287549,1.5168147754424595,-8.014825150874902,-1.1594332790208952,-0.7815540196317622,9.778336500044896,-0.0007605311583328291,0.0007819873101571123,0.0,30.596072905349533,3.95006063504551,-60.75
1771528721.2223654,0.3835022026287549,1.5168147754424595,-8.014825150874902,-1.1584901408442085,-0.7844098760799687,9.78223807106971,0.0015639746203142246,0.0015210623166656582,0.001090830782496456,30.596072905349533,3.95006063504551,-60.75
1771528721.233481,0.3835022026287549,1.5168147754424595,-8.014825150874902,-1.1584901408442085,-0.7844098760799687,9.78223807106971,0.0015639746203142246,0.0015210623166656582,0.001090830782496456,30.596072905349533,3.95006063504551,-60.75
1771528721.2447069,0.3835022026287549,1.5168147754424595,-8.014825150874902,-1.1625269408326735,-0.7815143750433725,9.784834523003319,2.145615182428316e-05,0.0015425184684899414,-0.001090830782496456,30.596072905349533,3.95006063504551,-60.75
1771528721.2558625,0.3835022026287549,1.5168147754424595,-8.014825150874902,-1.1628811621762334,-0.781985472248819,9.783217321053549,2.145615182428316e-05,0.0015425184684899414,0.001090830782496456,30.596072905349533,3.95006063504551,-60.75
1771528721.26701,0.3835022026287549,1.5168147754424595,-8.014825150874902,-1.1628811621762334,-0.781985472248819,9.783217321053549,2.145615182428316e-05,0.0015425184684899414,0.001090830782496456,30.596072905349533,3.95006063504551,-60.75
1771528721.2783058,0.3835022026287549,1.5168147754424595,-8.014825150874902,-1.1630510956777784,-0.7775687374213545,9.778795979513987,0.0007819873101571123,0.0007605311583328291,0.001090830782496456,30.515069188948818,4.481568770382376,-62.0
1771528721.2895129,0.3835022026287549,1.5168147754424595,-8.014825150874902,-1.1630510956777784,-0.7775687374213545,9.778795979513987,0.0007819873101571123,0.0007605311583328291,0.001090830782496456,30.515069188948818,4.481568770382376,-62.0
1771528721.3008497,0.3835022026287549,1.5168147754424595,-8.014825150874902,-1.163164184524775,-0.7746294497318378,9.77585362610903,0.0007819873101571123,0.0007605311583328291,0.0,30.515069188948818,4.481568770382376,-62.0
1771528721.3119917,0.3835022026287549,1.5168147754424595,-8.014825150874902,-1.1632394438891662,-0.7726733866084591,9.77389552278627,0.0007819873101571123,0.0007605311583328291,0.0,30.515069188948818,4.481568770382376,-62.0
1771528721.3231711,0.3835022026287549,1.5168147754424595,-8.014825150874902,-1.1632394438891662,-0.7726733866084591,9.77389552278627,0.0007819873101571123,0.0007605311583328291,0.0,30.515069188948818,4.481568770382376,-62.0
1771528721.3346515,0.3835022026287549,1.5168147754424595,-8.014825150874902,-1.1632895281554663,-0.7713716484505074,9.772592426898422,-0.0023030496268227705,0.0008034434619813955,0.001090830782496456,30.515069188948818,4.481568770382376,-62.0
1771528721.3457947,0.3835022026287549,1.5168147754424595,-8.014825150874902,-1.1632895281554663,-0.7713716484505074,9.772592426898422,-0.0023030496268227705,0.0008034434619813955,0.001090830782496456,30.515069188948818,4.481568770382376,-62.0
1771528721.356751,0.3835022026287549,1.5168147754424595,-8.014825150874902,-1.160990634720458,-0.772903377048194,9.775070342848913,0.0023245057786470537,0.0007390750065085459,0.0,29.74478602775852,3.122131349392839,-61.0625
1771528721.3676283,0.34559308274726325,1.865807291165343,-8.836620145234406,-1.1618587676202174,-0.776254949274178,9.77337425652651,0.0,0.0,-0.001090830782496456,29.74478602775852,3.122131349392839,-61.0625
1771528721.378485,0.34559308274726325,1.865807291165343,-8.836620145234406,-1.1618587676202174,-0.776254949274178,9.77337425652651,0.0,0.0,-0.001090830782496456,29.74478602775852,3.122131349392839,-61.0625
1771528721.3895252,0.3835022026287549,1.5168147754424595,-8.014825150874902,-1.1624365003673276,-0.7784853831510554,9.775590641732796,0.0015210623166656582,-0.0015639746203142246,0.0,29.74478602775852,3.122131349392839,-61.0625
1771528721.4003694,0.3835022026287549,1.5168147754424595,-8.014825150874902,-1.1624365003673276,-0.7784853831510554,9.775590641732796,0.0015210623166656582,-0.0015639746203142246,0.0,29.74478602775852,3.122131349392839,-61.0625
1771528721.4117012,0.3835022026287549,1.5168147754424595,-8.014825150874902,-1.1628209750568317,-0.7799697119805384,9.777065621328935,0.003106493088804166,0.001499606164841375,-0.002181661564992912,30.291046326424865,4.263692642579041,-62.0
1771528721.4228835,0.3835022026287549,1.5168147754424595,-8.014825150874902,-1.1628209750568317,-0.7799697119805384,9.777065621328935,0.003106493088804166,0.001499606164841375,-0.002181661564992912,30.291046326424865,4.263692642579041,-62.0
1771528721.43516,0.3835022026287549,1.5168147754424595,-8.014825150874902,-1.1630768386678332,-0.7809575162355199,9.778047203773564,0.003867024247136995,0.0007176188546842629,-0.001090830782496456,30.291046326424865,4.263692642579041,-62.0
1771528721.4464018,126.42658590154718,48.43243945545142,154.15154145946147,-1.1632471130427708,-0.7816148889327136,9.77870043592547,0.0008034434619813955,0.0023030496268227705,-0.001090830782496456,30.291046326424865,4.263692642579041,-62.0
1771528721.4575586,0.3835022026287549,1.5168147754424595,-8.014825150874902,-1.1585643871363316,-0.7773879152098556,9.782480266332803,0.0007819873101571123,0.0007605311583328291,0.001090830782496456,30.291046326424865,4.263692642579041,-62.0
1771528721.4689093,0.3835022026287549,1.5168147754424595,-8.014825150874902,-1.1585643871363316,-0.7773879152098556,9.782480266332803,0.0007819873101571123,0.0007605311583328291,0.001090830782496456,30.291046326424865,4.263692642579041,-62.0
1771528721.4801388,0.3835022026287549,1.5168147754424595,-8.014825150874902,-1.1553822885093896,-0.7698446666604953,9.784995701245409,0.0007819873101571123,0.0007605311583328291,0.001090830782496456,31.560874602404823,3.40625903026741,-61.5625
1771528721.4912872,0.3835022026287549,1.5168147754424595,-8.014825150874902,-1.1553822885093896,-0.7698446666604953,9.784995701245409,0.0007819873101571123,0.0007605311583328291,0.001090830782496456,31.560874602404823,3.40625903026741,-61.5625
1771528721.5026174,0.3835022026287549,1.5168147754424595,-8.014825150874902,-1.1532646374195308,-0.7648247190145037,9.7866696950805,0.0008034434619813955,0.0023030496268227705,0.001090830782496456,31.560874602404823,3.40625903026741,-61.5625
1771528721.514299,0.3835022026287549,1.5168147754424595,-8.014825150874902,-1.158983629830566,-0.7637504270416565,9.784438607570696,0.0007819873101571123,0.0007605311583328291,-0.002181661564992912,31.560874602404823,3.40625903026741,-61.5625
1771528721.525576,0.3835022026287549,1.5168147754424595,-8.014825150874902,-1.158983629830566,-0.7637504270416565,9.784438607570696,0.0007819873101571123,0.0007605311583328291,-0.002181661564992912,31.560874602404823,3.40625903026741,-61.5625
1771528721.53686,0.3835022026287549,1.5168147754424595,-8.014825150874902,-1.1581251074852728,-0.7678315393352252,9.782953843755802,0.0015639746203142246,0.0015210623166656582,0.001090830782496456,31.148479938736497,5.533520918558997,-59.5625
1771528721.5480094,0.3835022026287549,1.5168147754424595,-8.014825150874902,-1.1581251074852728,-0.7678315393352252,9.782953843755802,0.0015639746203142246,0.0015210623166656582,0.001090830782496456,31.148479938736497,5.533520918558997,-59.5625
1771528721.559207,0.3835022026287549,1.5168147754424595,-8.014825150874902,-1.1575537704548031,-0.7705474739775836,9.78196575002289,0.0007819873101571123,0.0007605311583328291,0.0,31.148479938736497,5.533520918558997,-59.5625
1771528721.5710664,0.3835022026287549,1.5168147754424595,-8.014825150874902,-1.1523775104424072,-0.7676904502335891,9.781308184681366,0.0007605311583328291,-0.0007819873101571123,0.001090830782496456,31.148479938736497,5.533520918558997,-59.5625
1771528721.582319,0.3835022026287549,1.5168147754424595,-8.014825150874902,-1.1523775104424072,-0.7676904502335891,9.781308184681366,0.0007605311583328291,-0.0007819873101571123,0.001090830782496456,31.148479938736497,5.533520918558997,-59.5625
1771528721.5942795,0.3835022026287549,1.5168147754424595,-8.014825150874902,-1.153728808827642,-0.7704535807565134,9.780870582292069,-0.0015639746203142246,-0.0015210623166656582,0.001090830782496456,30.282440897816002,3.6450340561208416,-61.0625
1771528721.6054363,0.3835022026287549,1.5168147754424595,-8.014825150874902,-1.153728808827642,-0.7704535807565134,9.780870582292069,-0.0015639746203142246,-0.0015210623166656582,0.001090830782496456,30.282440897816002,3.6450340561208416,-61.0625
1771528721.6175246,0.3835022026287549,1.5168147754424595,-8.014825150874902,-1.1546280828080235,-0.7722924132533291,9.78392447449765,0.0008034434619813955,0.0023030496268227705,0.0,30.282440897816002,3.6450340561208416,-61.0625
1771528721.628576,0.3835022026287549,1.5168147754424595,-8.014825150874902,-1.1576245603968545,-0.7758483596936083,9.785956805646254,-0.002345961930471337,-0.0022815934749984873,0.0,30.282440897816002,3.6450340561208416,-61.0625
1771528721.6394887,0.3835022026287549,1.5168147754424595,-8.014825150874902,-1.1576245603968545,-0.7758483596936083,9.785956805646254,-0.002345961930471337,-0.0022815934749984873,0.0,30.282440897816002,3.6450340561208416,-61.0625
1771528721.651675,0.3835022026287549,1.5168147754424595,-8.014825150874902,-1.1596186827593735,-0.7782148023270896,9.780619075908383,-0.0007605311583328291,0.0007819873101571123,0.0,30.282440897816002,3.6450340561208416,-61.0625
1771528721.663439,0.3835022026287549,1.5168147754424595,-8.014825150874902,-1.1632779728705767,-0.7773916226643396,9.777066876394178,0.0,0.0,-0.001090830782496456,30.857524258713536,3.6812332000167682,-60.75
1771528721.6746213,0.3835022026287549,1.5168147754424595,-8.014825150874902,-1.1632779728705767,-0.7773916226643396,9.777066876394178,0.0,0.0,-0.001090830782496456,30.857524258713536,3.6812332000167682,-60.75
1771528721.6858094,0.3835022026287549,1.5168147754424595,-8.014825150874902,-1.1657131895626334,-0.7768438057942988,9.774702927298144,0.0015425184684899414,-2.1456151824283196e-05,0.001090830782496456,30.857524258713536,3.6812332000167682,-60.75
1771528721.6967595,0.3835022026287549,1.5168147754424595,-8.014825150874902,-1.1657131895626334,-0.7768438057942988,9.774702927298144,0.0015425184684899414,-2.1456151824283196e-05,0.001090830782496456,30.857524258713536,3.6812332000167682,-60.75
1771528721.7089725,0.3835022026287549,1.5168147754424595,-8.014825150874902,-1.1649357782676089,-0.7741470158320489,9.779819968996414,-0.002345961930471337,-0.0022815934749984873,0.001090830782496456,30.857524258713536,3.6812332000167682,-60.75
1771528721.7204523,0.3835022026287549,1.5168147754424595,-8.014825150874902,-1.1620203989345876,-0.7700201082825363,9.78322530308551,0.0007605311583328291,-0.0007819873101571123,0.0,31.86590118132949,3.0926270227338786,-61.5625
1771528721.7313423,0.3835022026287549,1.5168147754424595,-8.014825150874902,-1.1620203989345876,-0.7700201082825363,9.78322530308551,0.0007605311583328291,-0.0007819873101571123,0.0,31.86590118132949,3.0926270227338786,-61.5625
1771528721.7423446,0.3835022026287549,1.5168147754424595,-8.014825150874902,-1.15774802260063,-0.7696717182093491,9.78549151488173,-0.0007605311583328291,0.0007819873101571123,0.001090830782496456,31.86590118132949,3.0926270227338786,-61.5625
1771528721.7532735,0.3835022026287549,1.5168147754424595,-8.014825150874902,-1.15774802260063,-0.7696717182093491,9.78549151488173,-0.0007605311583328291,0.0007819873101571123,0.001090830782496456,31.86590118132949,3.0926270227338786,-61.5625
1771528721.7650924,0.3835022026287549,1.5168147754424595,-8.014825150874902,-1.1549048038759522,-0.7694398685074151,9.78699965351687,-0.0007819873101571123,-0.0007605311583328291,0.001090830782496456,31.86590118132949,3.0926270227338786,-61.5625
1771528721.7768872,0.3835022026287549,1.5168147754424595,-8.014825150874902,-1.1554106943759486,-0.771617799075462,9.788003302931545,0.0,0.0,-0.001090830782496456,30.820095767873486,4.167936762848845,-62.25
1771528721.7879648,0.3835022026287549,1.5168147754424595,-8.014825150874902,-1.1554106943759486,-0.771617799075462,9.788003302931545,0.0,0.0,-0.001090830782496456,30.820095767873486,4.167936762848845,-62.25
1771528721.7990625,0.3835022026287549,1.5168147754424595,-8.014825150874902,-1.1557473588525289,-0.7730671875394186,9.788671220405512,0.0015425184684899414,-2.1456151824283196e-05,0.001090830782496456,30.820095767873486,4.167936762848845,-62.25
1771528721.8101141,0.3835022026287549,1.5168147754424595,-8.014825150874902,-1.1557473588525289,-0.7730671875394186,9.788671220405512,0.0015425184684899414,-2.1456151824283196e-05,0.001090830782496456,30.820095767873486,4.167936762848845,-62.25
1771528721.8224967,0.3835022026287549,1.5168147754424595,-8.014825150874902,-1.15836942610134,-0.7763639633262049,9.78242548860867,0.0,0.0,-0.001090830782496456,30.820095767873486,4.167936762848845,-62.25
1771528721.8337634,0.3835022026287549,1.5168147754424595,-8.014825150874902,-1.1624466065197665,-0.7761599099844771,9.784959247281906,0.0015425184684899414,-2.1456151824283196e-05,-0.002181661564992912,30.820095767873486,4.167936762848845,-62.25
1771528721.844637,0.3835022026287549,1.5168147754424595,-8.014825150874902,-1.1624466065197665,-0.7761599099844771,9.784959247281906,0.0015425184684899414,-2.1456151824283196e-05,-0.002181661564992912,30.820095767873486,4.167936762848845,-62.25
1771528721.8555737,0.3835022026287549,1.5168147754424595,-8.014825150874902,-1.16515992454314,-0.7760241147649826,9.786645435375005,0.0023245057786470537,0.0007390750065085459,0.0,30.282440897816002,3.6450340561208416,-60.25
1771528721.866393,0.34559308274726325,1.865807291165343,-8.836620145234406,-1.1669656073779466,-0.7759337445633409,9.787767574715009,0.001585430772138508,0.0030635807851555996,0.002181661564992912,30.282440897816002,3.6450340561208416,-60.25
1771528721.877274,0.34559308274726325,1.865807291165343,-8.836620145234406,-1.1669656073779466,-0.7759337445633409,9.787767574715009,0.001585430772138508,0.0030635807851555996,0.002181661564992912,30.282440897816002,3.6450340561208416,-60.25
1771528721.8882027,0.3835022026287549,1.5168147754424595,-8.014825150874902,-1.1681672691337115,-0.7758736042036497,9.788514345910663,0.0,0.0,0.001090830782496456,30.282440897816002,3.6450340561208416,-60.25
1771528721.899024,0.3835022026287549,1.5168147754424595,-8.014825150874902,-1.1681672691337115,-0.7758736042036497,9.788514345910663,0.0,0.0,0.001090830782496456,30.282440897816002,3.6450340561208416,-60.25
1771528721.9098864,0.3835022026287549,1.5168147754424595,-8.014825150874902,-1.1689669616087317,-0.7758335814660869,9.78566620209207,2.145615182428316e-05,0.0015425184684899414,-0.003272492347489368,29.977414318891334,3.958666063654373,-60.25
1771528721.9207606,0.3835022026287549,1.5168147754424595,-8.014825150874902,-1.1689669616087317,-0.7758335814660869,9.78566620209207,2.145615182428316e-05,0.0015425184684899414,-0.003272492347489368,29.977414318891334,3.958666063654373,-60.25
1771528721.9319253,0.3835022026287549,1.5168147754424595,-8.014825150874902,-1.1694991480177075,-0.7758069467813222,9.780425682489328,0.0015425184684899414,-2.1456151824283196e-05,-0.001090830782496456,29.977414318891334,3.958666063654373,-60.25
1771528721.9429572,0.3835022026287549,1.5168147754424595,-8.014825150874902,-1.1627250465723449,-0.7735227945870694,9.776938175234143,-0.0023245057786470537,-0.0007390750065085459,0.002181661564992912,29.977414318891334,3.958666063654373,-60.25
1771528721.9538693,0.3835022026287549,1.5168147754424595,-8.014825150874902,-1.1627250465723449,-0.7735227945870694,9.776938175234143,-0.0023245057786470537,-0.0007390750065085459,0.002181661564992912,29.977414318891334,3.958666063654373,-60.25
1771528721.9649093,0.3835022026287549,1.5168147754424595,-8.014825150874902,-1.1582169577321277,-0.772002716817446,9.777962389821147,-0.0007819873101571123,-0.0007605311583328291,0.0,29.977414318891334,3.958666063654373,-60.25
1771528721.9757757,0.3835022026287549,1.5168147754424595,-8.014825150874902,-1.1582169577321277,-0.772002716817446,9.777962389821147,-0.0007819873101571123,-0.0007605311583328291,0.0,29.977414318891334,3.958666063654373,-60.25
1771528721.9867663,0.3835022026287549,1.5168147754424595,-8.014825150874902,-1.155216874967615,-0.770991122042143,9.77864399318757,-2.145615182428316e-05,-0.0015425184684899414,0.001090830782496456,30.7543922973186,2.621904970175406,-60.0
1771528721.9976797,0.3835022026287549,1.5168147754424595,-8.014825150874902,-1.155618374201388,-0.772650140974186,9.779097592613917,0.0023245057786470537,0.0007390750065085459,0.0,30.7543922973186,2.621904970175406,-60.0
1771528722.0089312,0.3835022026287549,1.5168147754424595,-8.014825150874902,-1.155618374201388,-0.772650140974186,9.779097592613917,0.0023245057786470537,0.0007390750065085459,0.0,30.7543922973186,2.621904970175406,-60.0
1771528722.0201802,0.3835022026287549,1.5168147754424595,-8.014825150874902,-1.160681609057294,-0.7784186474505113,9.779399457965113,-0.004649011557294107,-0.0014781500130170919,0.001090830782496456,30.7543922973186,2.621904970175406,-60.0
1771528722.0311441,0.3835022026287549,1.5168147754424595,-8.014825150874902,-1.160681609057294,-0.7784186474505113,9.779399457965113,-0.004649011557294107,-0.0014781500130170919,0.001090830782496456,30.7543922973186,2.621904970175406,-60.0
1771528722.0422432,0.3835022026287549,1.5168147754424595,-8.014825150874902,-1.1640511352938603,-0.7822575240720661,9.779600345984276,-0.0007819873101571123,-0.0007605311583328291,0.0,31.088923202902226,4.429388116212846,-62.0
1771528722.0531764,0.3835022026287549,1.5168147754424595,-8.014825150874902,-1.1640511352938603,-0.7822575240720661,9.779600345984276,-0.0007819873101571123,-0.0007605311583328291,0.0,31.088923202902226,4.429388116212846,-62.0
1771528722.065252,0.3835022026287549,1.5168147754424595,-8.014825150874902,-1.1638954965637855,-0.782480029625896,9.779734034716963,-0.0008034434619813955,-0.0023030496268227705,0.0,31.088923202902226,4.429388116212846,-62.0
1771528722.0763118,0.3835022026287549,1.5168147754424595,-8.014825150874902,-1.1661241446822723,-0.7802300837859845,9.779823003075165,0.0007819873101571123,0.0007605311583328291,-0.002181661564992912,31.088923202902226,4.429388116212846,-62.0
1771528722.0873106,0.3835022026287549,1.5168147754424595,-8.014825150874902,-1.1661241446822723,-0.7802300837859845,9.779823003075165,0.0007819873101571123,0.0007605311583328291,-0.002181661564992912,31.088923202902226,4.429388116212846,-62.0
1771528722.0983467,0.3835022026287549,1.5168147754424595,-8.014825150874902,-1.1722717330190007,-0.7739367283621944,9.783227322231028,0.0008034434619813955,0.0023030496268227705,0.001090830782496456,30.805343604544003,3.107379186063358,-60.25
1771528722.1092412,0.3835022026287549,1.5168147754424595,-8.014825150874902,-1.1763628843840321,-0.7697485706290484,9.782147746893198,-0.0023245057786470537,-0.0007390750065085459,0.001090830782496456,30.805343604544003,3.107379186063358,-60.25
1771528722.1201277,0.3835022026287549,1.5168147754424595,-8.014825150874902,-1.1763628843840321,-0.7697485706290484,9.782147746893198,-0.0023245057786470537,-0.0007390750065085459,0.001090830782496456,30.805343604544003,3.107379186063358,-60.25
1771528722.1310763,0.3835022026287549,1.5168147754424595,-8.014825150874902,-1.174421052006799,-0.771757440043298,9.781429301565518,-0.004649011557294107,-0.0014781500130170919,-0.001090830782496456,30.805343604544003,3.107379186063358,-60.25
1771528722.1425242,0.3835022026287549,1.5168147754424595,-8.014825150874902,-1.1684643363419334,-0.7778903617988103,9.780951184225508,-0.003106493088804166,-0.001499606164841375,0.0,30.805343604544003,3.107379186063358,-60.25
1771528722.1536226,0.3835022026287549,1.5168147754424595,-8.014825150874902,-1.1684643363419334,-0.7778903617988103,9.780951184225508,-0.003106493088804166,-0.001499606164841375,0.0,30.805343604544003,3.107379186063358,-60.25
1771528722.1646516,0.3835022026287549,1.5168147754424595,-8.014825150874902,-1.1667666357169098,-0.7748434871622548,9.777287890769331,2.145615182428316e-05,0.0015425184684899414,-0.001090830782496456,30.291046326424865,4.263692642579041,-60.75
1771528722.1755683,0.3835022026287549,1.5168147754424595,-8.014825150874902,-1.1667666357169098,-0.7748434871622548,9.777287890769331,2.145615182428316e-05,0.0015425184684899414,-0.001090830782496456,30.291046326424865,4.263692642579041,-60.75
1771528722.186663,0.3835022026287549,1.5168147754424595,-8.014825150874902,-1.1679690588702683,-0.7704178053270114,9.778195121603234,0.0015425184684899414,-2.1456151824283196e-05,0.0,30.291046326424865,4.263692642579041,-60.75
1771528722.1978717,0.3835022026287549,1.5168147754424595,-8.014825150874902,-1.171167278847317,-0.7698047874585155,9.782143985296084,0.0007819873101571123,0.0007605311583328291,0.0,30.291046326424865,4.263692642579041,-60.75
1771528722.2088804,0.3835022026287549,1.5168147754424595,-8.014825150874902,-1.171167278847317,-0.7698047874585155,9.782143985296084,0.0007819873101571123,0.0007605311583328291,0.0,30.291046326424865,4.263692642579041,-60.75
1771528722.2203383,0.3835022026287549,1.5168147754424595,-8.014825150874902,-1.1686312106060788,-0.7741928725157606,9.78477190997198,0.0023245057786470537,0.0007390750065085459,-0.001090830782496456,30.291046326424865,4.263692642579041,-60.75
1771528722.2315638,0.3835022026287549,1.5168147754424595,-8.014825150874902,-1.1686312106060788,-0.7741928725157606,9.78477190997198,0.0023245057786470537,0.0007390750065085459,-0.001090830782496456,30.291046326424865,4.263692642579041,-60.75
1771528722.2425687,0.3835022026287549,1.5168147754424595,-8.014825150874902,-1.1645454647208378,-0.7747808701484823,9.779830541073306,-0.0007819873101571123,-0.0007605311583328291,0.0,30.515069188948818,4.481568770382376,-60.75
1771528722.253695,0.3835022026287549,1.5168147754424595,-8.014825150874902,-1.1645454647208378,-0.7747808701484823,9.779830541073306,-0.0007819873101571123,-0.0007605311583328291,0.0,30.515069188948818,4.481568770382376,-60.75
1771528722.266102,0.3835022026287549,1.5168147754424595,-8.014825150874902,-1.164158670429735,-0.7727741552042592,9.776542115269946,-0.0007819873101571123,-0.0007605311583328291,-0.001090830782496456,30.515069188948818,4.481568770382376,-60.75
1771528722.2772834,0.3835022026287549,1.5168147754424595,-8.014825150874902,-1.161503242349346,-0.7691064848706003,9.777698816339251,-0.0007605311583328291,0.0007819873101571123,-0.001090830782496456,30.515069188948818,4.481568770382376,-60.75
1771528722.2882633,0.3835022026287549,1.5168147754424595,-8.014825150874902,-1.161503242349346,-0.7691064848706003,9.777698816339251,-0.0007605311583328291,0.0007819873101571123,-0.001090830782496456,30.515069188948818,4.481568770382376,-60.75
1771528722.2993271,0.3835022026287549,1.5168147754424595,-8.014825150874902,-1.1598018814706048,-0.771395935989301,9.778468587979678,-0.0007819873101571123,-0.0007605311583328291,-0.001090830782496456,29.221883321030518,3.659786219450321,-60.25
1771528722.310724,0.3835022026287549,1.5168147754424595,-8.014825150874902,-1.1562716240108133,-0.7705873161791985,9.778980862407469,0.0007819873101571123,0.0007605311583328291,-0.001090830782496456,29.221883321030518,3.659786219450321,-60.25
1771528722.321703,0.3835022026287549,1.5168147754424595,-8.014825150874902,-1.1562716240108133,-0.7705873161791985,9.778980862407469,0.0007819873101571123,0.0007605311583328291,-0.001090830782496456,29.221883321030518,3.659786219450321,-60.25
1771528722.3328044,0.3835022026287549,1.5168147754424595,-8.014825150874902,-1.1586525218620705,-0.7699833918827681,9.775976663609363,0.0007819873101571123,0.0007605311583328291,-0.001090830782496456,29.221883321030518,3.659786219450321,-60.25
1771528722.3437638,0.3835022026287549,1.5168147754424595,-8.014825150874902,-1.1586525218620705,-0.7699833918827681,9.775976663609363,0.0007819873101571123,0.0007605311583328291,-0.001090830782496456,29.221883321030518,3.659786219450321,-60.25
1771528722.3552659,0.3835022026287549,1.5168147754424595,-8.014825150874902,-1.1626350035861457,-0.7719137109645231,9.777322514575642,0.0,0.0,0.001090830782496456,29.221883321030518,3.659786219450321,-60.25
1771528722.366744,0.3835022026287549,1.5168147754424595,-8.014825150874902,-1.1676833214867175,-0.7755305407051073,9.774873051652243,-0.0007605311583328291,0.0007819873101571123,-0.001090830782496456,31.350374556266228,4.160560681184104,-61.0625
1771528722.3776846,0.3835022026287549,1.5168147754424595,-8.014825150874902,-1.1676833214867175,-0.7755305407051073,9.774873051652243,-0.0007605311583328291,0.0007819873101571123,-0.001090830782496456,31.350374556266228,4.160560681184104,-61.0625
1771528722.3887465,0.3835022026287549,1.5168147754424595,-8.014825150874902,-1.1686448998557066,-0.7756052765400774,9.773242961439013,-0.003106493088804166,-0.001499606164841375,0.0,31.350374556266228,4.160560681184104,-61.0625
1771528722.3997366,0.3835022026287549,1.5168147754424595,-8.014825150874902,-1.1669525955639817,-0.7780530332038315,9.772158154611411,-0.0007819873101571123,-0.0007605311583328291,0.0,31.350374556266228,4.160560681184104,-61.0625
1771528722.4106715,0.3835022026287549,1.5168147754424595,-8.014825150874902,-1.1669525955639817,-0.7780530332038315,9.772158154611411,-0.0007819873101571123,-0.0007605311583328291,0.0,31.350374556266228,4.160560681184104,-61.0625
1771528722.4217257,0.3835022026287549,1.5168147754424595,-8.014825150874902,-1.1658263859621163,-0.7796819879203263,9.771436227785728,0.0,0.0,-0.001090830782496456,31.350374556266228,4.160560681184104,-61.0625
1771528722.4326923,0.3835022026287549,1.5168147754424595,-8.014825150874902,-1.1658263859621163,-0.7796819879203263,9.771436227785728,0.0,0.0,-0.001090830782496456,31.350374556266228,4.160560681184104,-61.0625
1771528722.4439876,0.3835022026287549,1.5168147754424595,-8.014825150874902,-1.1650769060526602,-0.7807660390875371,9.774300905255005,-0.0008034434619813955,-0.0023030496268227705,0.001090830782496456,31.350374556266228,4.160560681184104,-61.0625
1771528722.4550092,0.3835022026287549,1.5168147754424595,-8.014825150874902,-1.1650769060526602,-0.7807660390875371,9.774300905255005,-0.0008034434619813955,-0.0023030496268227705,0.001090830782496456,31.350374556266228,4.160560681184104,-61.0625
1771528722.465962,0.3835022026287549,1.5168147754424595,-8.014825150874902,-1.1645781355451565,-0.7814874630296708,9.776207316110266,0.0008034434619813955,0.0023030496268227705,-0.001090830782496456,31.350374556266228,4.160560681184104,-61.0625
1771528722.4772346,0.3835022026287549,1.5168147754424595,-8.014825150874902,-1.1642462093440447,-0.7819675626043275,9.777476011238438,-0.0007819873101571123,-0.0007605311583328291,0.001090830782496456,31.33685173988087,3.1883829024640757,-60.75
1771528722.4880788,0.3835022026287549,1.5168147754424595,-8.014825150874902,-1.1642462093440447,-0.7819675626043275,9.777476011238438,-0.0007819873101571123,-0.0007605311583328291,0.001090830782496456,31.33685173988087,3.1883829024640757,-60.75
1771528722.4990797,0.3835022026287549,1.5168147754424595,-8.014825150874902,-1.1710219880293224,-0.7750930011068916,9.778320313673982,2.145615182428316e-05,0.0015425184684899414,0.0,31.33685173988087,3.1883829024640757,-60.75
1771528722.5100222,0.3835022026287549,1.5168147754424595,-8.014825150874902,-1.1755311930539676,-0.7705180572242315,9.77553707580604,2.145615182428316e-05,0.0015425184684899414,0.001090830782496456,31.33685173988087,3.1883829024640757,-60.75
1771528722.5212276,0.3835022026287549,1.5168147754424595,-8.014825150874902,-1.1755311930539676,-0.7705180572242315,9.77553707580604,2.145615182428316e-05,0.0015425184684899414,0.001090830782496456,31.33685173988087,3.1883829024640757,-60.75
1771528722.5322084,0.3835022026287549,1.5168147754424595,-8.014825150874902,-1.171535346762489,-0.7746675455770994,9.773684862095731,-0.0015425184684899414,2.1456151824283196e-05,-0.002181661564992912,31.33685173988087,3.1883829024640757,-60.75
1771528722.543057,0.3835022026287549,1.5168147754424595,-8.014825150874902,-1.171535346762489,-0.7746675455770994,9.773684862095731,-0.0015425184684899414,2.1456151824283196e-05,-0.002181661564992912,31.33685173988087,3.1883829024640757,-60.75
1771528722.5539331,0.3835022026287549,1.5168147754424595,-8.014825150874902,-1.1688761556920375,-0.7774289837231108,9.772452234562103,0.0007819873101571123,0.0007605311583328291,-0.002181661564992912,31.350374556266228,4.160560681184104,-61.0625
1771528722.5655148,0.3835022026287549,1.5168147754424595,-8.014825150874902,-1.1647084729393273,-0.776934466007243,9.771631934707823,0.0007819873101571123,0.0007605311583328291,0.0,31.350374556266228,4.160560681184104,-61.0625
1771528722.5765078,0.3835022026287549,1.5168147754424595,-8.014825150874902,-1.1647084729393273,-0.776934466007243,9.771631934707823,0.0007819873101571123,0.0007605311583328291,0.0,31.350374556266228,4.160560681184104,-61.0625
1771528722.5876708,0.3835022026287549,1.5168147754424595,-8.014825150874902,-1.164267150578219,-0.7742073491910225,9.77443114602547,0.001585430772138508,0.0030635807851555996,0.0,31.350374556266228,4.160560681184104,-61.0625
1771528722.5985029,0.3835022026287549,1.5168147754424595,-8.014825150874902,-1.164267150578219,-0.7742073491910225,9.77443114602547,0.001585430772138508,0.0030635807851555996,0.0,31.350374556266228,4.160560681184104,-61.0625
1771528722.6094515,0.3835022026287549,1.5168147754424595,-8.014825150874902,-1.166305679431548,-0.7699944626132832,9.776293989888126,0.0038884803989612782,0.002260137323174204,-0.001090830782496456,31.350374556266228,4.160560681184104,-62.0
1771528722.6207273,0.3835022026287549,1.5168147754424595,-8.014825150874902,-1.1676622976115791,-0.7671908336568243,9.784223915084032,0.0,0.0,0.002181661564992912,31.350374556266228,4.160560681184104,-62.0
1771528722.6318388,0.3835022026287549,1.5168147754424595,-8.014825150874902,-1.1676622976115791,-0.7671908336568243,9.784223915084032,0.0,0.0,0.002181661564992912,31.350374556266228,4.160560681184104,-62.0
1771528722.6430314,0.3835022026287549,1.5168147754424595,-8.014825150874902,-1.1662328879012187,-0.7677230707053238,9.78950119171884,-0.0008034434619813955,-0.0023030496268227705,-0.001090830782496456,31.350374556266228,4.160560681184104,-62.0
1771528722.65414,0.3835022026287549,1.5168147754424595,-8.014825150874902,-1.1662328879012187,-0.7677230707053238,9.78950119171884,-0.0008034434619813955,-0.0023030496268227705,-0.001090830782496456,31.350374556266228,4.160560681184104,-62.0
1771528722.6653936,0.3835022026287549,1.5168147754424595,-8.014825150874902,-1.1652816317065264,-0.7680772685156229,9.793013160368261,0.0023030496268227705,-0.0008034434619813955,-0.001090830782496456,30.291046326424865,4.263692642579041,-61.0625
1771528722.6766143,0.3835022026287549,1.5168147754424595,-8.014825150874902,-1.1652816317065264,-0.7680772685156229,9.793013160368261,0.0023030496268227705,-0.0008034434619813955,-0.001090830782496456,30.291046326424865,4.263692642579041,-61.0625
1771528722.6887321,0.3835022026287549,1.5168147754424595,-8.014825150874902,-1.1646485813351868,-0.7683129832017281,9.785315001151233,-0.0007819873101571123,-0.0007605311583328291,-0.001090830782496456,30.291046326424865,4.263692642579041,-61.0625
1771528722.6999896,0.3835022026287549,1.5168147754424595,-8.014825150874902,-1.1618950694299433,-0.770867869492661,9.783537073893692,-0.004627555405469825,6.436845547284944e-05,0.001090830782496456,30.291046326424865,4.263692642579041,-61.0625
1771528722.7113454,0.3835022026287549,1.5168147754424595,-8.014825150874902,-1.1600626380157468,-0.772568117779327,9.779008771457228,-0.001499606164841375,0.003106493088804166,0.002181661564992912,30.291046326424865,4.263692642579041,-61.0625
1771528722.7222238,0.3835022026287549,1.5168147754424595,-8.014825150874902,-1.1600626380157468,-0.772568117779327,9.779008771457228,-0.001499606164841375,0.003106493088804166,0.002181661564992912,30.291046326424865,4.263692642579041,-61.0625
1771528722.733304,0.3835022026287549,1.5168147754424595,-8.014825150874902,-1.1565109514244463,-0.7760976348215207,9.775995236770214,-0.0015639746203142246,-0.0015210623166656582,0.001090830782496456,31.081547121237488,3.8991093278201023,-60.25
1771528722.744277,0.3835022026287549,1.5168147754424595,-8.014825150874902,-1.1565109514244463,-0.7760976348215207,9.775995236770214,-0.0015639746203142246,-0.0015210623166656582,0.001090830782496456,31.081547121237488,3.8991093278201023,-60.25
1771528722.755328,0.3835022026287549,1.5168147754424595,-8.014825150874902,-1.1588117915823808,-0.773650447384941,9.773989763099394,0.0015210623166656582,-0.0015639746203142246,0.001090830782496456,31.081547121237488,3.8991093278201023,-60.25
1771528722.7662427,0.3835022026287549,1.5168147754424595,-8.014825150874902,-1.1588117915823808,-0.773650447384941,9.773989763099394,0.0015210623166656582,-0.0015639746203142246,0.001090830782496456,31.081547121237488,3.8991093278201023,-60.25
1771528722.7786136,0.3835022026287549,1.5168147754424595,-8.014825150874902,-1.1603429750054175,-0.7720218714827722,9.77934536618871,-0.002345961930471337,-0.0022815934749984873,-0.001090830782496456,31.081547121237488,3.8991093278201023,-60.25
1771528722.7896187,0.3835022026287549,1.5168147754424595,-8.014825150874902,-1.1637599812694444,-0.7732702963670168,9.782909460218645,0.0007819873101571123,0.0007605311583328291,-0.001090830782496456,30.515069188948818,4.481568770382376,-62.0
1771528722.8005402,0.3835022026287549,1.5168147754424595,-8.014825150874902,-1.1637599812694444,-0.7732702963670168,9.782909460218645,0.0007819873101571123,0.0007605311583328291,-0.001090830782496456,30.515069188948818,4.481568770382376,-62.0
1771528722.811517,0.3835022026287549,1.5168147754424595,-8.014825150874902,-1.1660339607676933,-0.7741011091816619,9.781936213274708,-0.0015639746203142246,-0.0015210623166656582,-0.001090830782496456,30.515069188948818,4.481568770382376,-62.0
1771528722.8223948,0.3835022026287549,1.5168147754424595,-8.014825150874902,-1.1660339607676933,-0.7741011091816619,9.781936213274708,-0.0015639746203142246,-0.0015210623166656582,-0.001090830782496456,30.515069188948818,4.481568770382376,-62.0
1771528722.8334506,0.3835022026287549,1.5168147754424595,-8.014825150874902,-1.1652150447670093,-0.7770520266294563,9.77794341659808,0.0,0.0,0.0,30.515069188948818,4.481568770382376,-62.0
1771528722.8446655,0.3835022026287549,1.5168147754424595,-8.014825150874902,-1.1693345132259516,-0.7742197876261848,9.775286255012244,-0.0015639746203142246,-0.0015210623166656582,0.002181661564992912,31.02321973234734,2.8833563235394073,-60.75
1771528722.8555608,0.3835022026287549,1.5168147754424595,-8.014825150874902,-1.1693345132259516,-0.7742197876261848,9.775286255012244,-0.0015639746203142246,-0.0015210623166656582,0.002181661564992912,31.02321973234734,2.8833563235394073,-60.75
1771528722.866535,0.3835022026287549,1.5168147754424595,-8.014825150874902,-1.1696779526674643,-0.7700027402529372,9.77017283195199,0.0008034434619813955,0.0023030496268227705,0.002181661564992912,31.02321973234734,2.8833563235394073,-60.75
1771528722.877495,0.3835022026287549,1.5168147754424595,-8.014825150874902,-1.1696779526674643,-0.7700027402529372,9.77017283195199,0.0008034434619813955,0.0023030496268227705,0.002181661564992912,31.02321973234734,2.8833563235394073,-60.75
1771528722.889652,0.3835022026287549,1.5168147754424595,-8.014825150874902,-1.1699065077793211,-0.7671963423335467,9.77011501773339,-0.0008034434619813955,-0.0023030496268227705,-0.001090830782496456,31.02321973234734,2.8833563235394073,-60.75
1771528722.9006672,0.3835022026287549,1.5168147754424595,-8.014825150874902,-1.1677263846983807,-0.7677267366681466,9.770076543016739,2.145615182428316e-05,0.0015425184684899414,0.0,31.02321973234734,2.8833563235394073,-60.75
1771528722.9115498,0.3835022026287549,1.5168147754424595,-8.014825150874902,-1.1677263846983807,-0.7677267366681466,9.770076543016739,2.145615182428316e-05,0.0015425184684899414,0.0,31.02321973234734,2.8833563235394073,-60.75
1771528722.9225914,0.3835022026287549,1.5168147754424595,-8.014825150874902,-1.1662755371415854,-0.7680797081729299,9.770050938522598,-0.0015639746203142246,-0.0015210623166656582,0.002181661564992912,31.081547121237488,3.8991093278201023,-61.5625
1771528722.9340222,0.3835022026287549,1.5168147754424595,-8.014825150874902,-1.1653100142995674,-0.7683146067664132,9.770033899017768,-0.003106493088804166,-0.001499606164841375,0.0,31.081547121237488,3.8991093278201023,-61.5625
1771528722.9463987,0.3835022026287549,1.5168147754424595,-8.014825150874902,-1.1653100142995674,-0.7683146067664132,9.770033899017768,-0.003106493088804166,-0.001499606164841375,0.0,31.081547121237488,3.8991093278201023,-61.5625
1771528722.9575076,0.3835022026287549,1.5168147754424595,-8.014825150874902,-1.1623352456790481,-0.7708689499568225,9.770022559417647,-0.0015425184684899414,2.1456151824283196e-05,0.0,31.081547121237488,3.8991093278201023,-61.5625
1771528722.9685333,0.3835022026287549,1.5168147754424595,-8.014825150874902,-1.1623352456790481,-0.7708689499568225,9.770022559417647,-0.0015425184684899414,2.1456151824283196e-05,0.0,31.081547121237488,3.8991093278201023,-61.5625
1771528722.9851036,0.3835022026287549,1.5168147754424595,-8.014825150874902,-1.1603555703924353,-0.772568836816157,9.770015013040439,0.0007819873101571123,0.0007605311583328291,-0.002181661564992912,30.820095767873486,4.167936762848845,-61.5625
1771528722.9962187,0.3835022026287549,1.5168147754424595,-8.014825150874902,-1.161436139404052,-0.7760323164868166,9.770009991010705,-0.0007819873101571123,-0.0007605311583328291,0.0,30.820095767873486,4.167936762848845,-61.5625
1771528723.007077,0.3835022026287549,1.5168147754424595,-8.014825150874902,-1.161436139404052,-0.7760323164868166,9.770009991010705,-0.0007819873101571123,-0.0007605311583328291,0.0,30.820095767873486,4.167936762848845,-61.5625
1771528723.0190797,0.3835022026287549,1.5168147754424595,-8.014825150874902,-1.162155246010536,-0.7783372235180377,9.770006648906017,0.0015639746203142246,0.0015210623166656582,-0.002181661564992912,30.820095767873486,4.167936762848845,-61.5625
1771528723.0301743,0.3835022026287549,1.5168147754424595,-8.014825150874902,-1.1649660273789573,-0.7774730925993814,9.770004424772681,0.0,0.0,-0.002181661564992912,30.805343604544003,3.107379186063358,-61.5625
1771528723.0410438,0.3835022026287549,1.5168147754424595,-8.014825150874902,-1.1649660273789573,-0.7774730925993814,9.770004424772681,0.0,0.0,-0.002181661564992912,30.805343604544003,3.107379186063358,-61.5625
1771528723.0523777,0.3835022026287549,1.5168147754424595,-8.014825150874902,-1.1645043470264032,-0.7792960439264257,9.770002944636792,0.0015639746203142246,0.0015210623166656582,-0.001090830782496456,30.805343604544003,3.107379186063358,-61.5625
1771528723.063314,0.3835022026287549,1.5168147754424595,-8.014825150874902,-1.1645043470264032,-0.7792960439264257,9.770002944636792,0.0015639746203142246,0.0015210623166656582,-0.001090830782496456,30.805343604544003,3.107379186063358,-61.5625
1771528723.0754726,0.3835022026287549,1.5168147754424595,-8.014825150874902,-1.1617990831086504,-0.77817697371612,9.77000195962289,-0.0015425184684899414,2.1456151824283196e-05,0.0,30.805343604544003,3.107379186063358,-61.5625
1771528723.0866404,0.3835022026287549,1.5168147754424595,-8.014825150874902,-1.1599987601911639,-0.7774322449919949,9.770001304107144,0.0,0.0,0.001090830782496456,30.805343604544003,3.107379186063358,-61.5625
1771528723.09758,0.3835022026287549,1.5168147754424595,-8.014825150874902,-1.1599987601911639,-0.7774322449919949,9.770001304107144,0.0,0.0,0.001090830782496456,30.805343604544003,3.107379186063358,-61.5625
1771528723.108716,0.3835022026287549,1.5168147754424595,-8.014825150874902,-1.1588006654005016,-0.7769366363452547,9.776691091283375,2.145615182428316e-05,0.0015425184684899414,-0.001090830782496456,30.515069188948818,4.481568770382376,-60.75
1771528723.1196249,0.3835022026287549,1.5168147754424595,-8.014825150874902,-1.160401367501347,-0.7789390382819135,9.777797958212018,2.145615182428316e-05,0.0015425184684899414,-0.001090830782496456,30.515069188948818,4.481568770382376,-60.75
1771528723.130514,0.3835022026287549,1.5168147754424595,-8.014825150874902,-1.160401367501347,-0.7789390382819135,9.777797958212018,2.145615182428316e-05,0.0015425184684899414,-0.001090830782496456,30.515069188948818,4.481568770382376,-60.75
1771528723.141475,0.3835022026287549,1.5168147754424595,-8.014825150874902,-1.1614666168684453,-0.7802716144024646,9.778534565788517,-0.0015425184684899414,2.1456151824283196e-05,0.001090830782496456,30.515069188948818,4.481568770382376,-60.75
1771528723.152385,0.3835022026287549,1.5168147754424595,-8.014825150874902,-1.1614666168684453,-0.7802716144024646,9.778534565788517,-0.0015425184684899414,2.1456151824283196e-05,0.001090830782496456,30.515069188948818,4.481568770382376,-60.75
1771528723.1636763,0.3835022026287549,1.5168147754424595,-8.014825150874902,-1.162175528422634,-0.7811584289248407,9.77902476990223,-2.145615182428316e-05,-0.0015425184684899414,0.001090830782496456,31.118975612077534,3.4124057649880264,-60.75
1771528723.1748993,0.3835022026287549,1.5168147754424595,-8.014825150874902,-1.162175528422634,-0.7811584289248407,9.77902476990223,-2.145615182428316e-05,-0.0015425184684899414,0.001090830782496456,31.118975612077534,3.4124057649880264,-60.75
1771528723.1859694,0.3835022026287549,1.5168147754424595,-8.014825150874902,-1.1649795250976391,-0.7793505732826793,9.77600588355665,-0.0015425184684899414,2.1456151824283196e-05,-0.001090830782496456,31.118975612077534,3.4124057649880264,-60.75
1771528723.197005,0.3835022026287549,1.5168147754424595,-8.014825150874902,-1.1668455535621596,-0.7781474655478917,9.777341960124154,-0.0015639746203142246,-0.0015210623166656582,0.001090830782496456,31.118975612077534,3.4124057649880264,-60.75
1771528723.2079153,0.3835022026287549,1.5168147754424595,-8.014825150874902,-1.1668455535621596,-0.7781474655478917,9.777341960124154,-0.0015639746203142246,-0.0015210623166656582,0.001090830782496456,31.118975612077534,3.4124057649880264,-60.75
1771528723.2190106,0.3835022026287549,1.5168147754424595,-8.014825150874902,-1.1680873746603941,-0.7773468107899845,9.778231104154875,-0.0015639746203142246,-0.0015210623166656582,0.0,31.118975612077534,3.4124057649880264,-60.75
1771528723.2299411,0.3835022026287549,1.5168147754424595,-8.014825150874902,-1.1680873746603941,-0.7773468107899845,9.778231104154875,-0.0015639746203142246,-0.0015210623166656582,0.0,31.118975612077534,3.4124057649880264,-60.75
1771528723.2421556,0.3835022026287549,1.5168147754424595,-8.014825150874902,-1.1641835479740301,-0.7768797808381792,9.77882281957493,-0.0007819873101571123,-0.0007605311583328291,0.0,29.977414318891334,3.958666063654373,-60.0
1771528723.2534103,0.3835022026287549,1.5168147754424595,-8.014825150874902,-1.1663816365237274,-0.7812334255318255,9.775871487869765,-0.0008034434619813955,-0.0023030496268227705,0.001090830782496456,29.977414318891334,3.958666063654373,-60.0
1771528723.2644305,0.3835022026287549,1.5168147754424595,-8.014825150874902,-1.1663816365237274,-0.7812334255318255,9.775871487869765,-0.0008034434619813955,-0.0023030496268227705,0.001090830782496456,29.977414318891334,3.958666063654373,-60.0
1771528723.2757747,0.3835022026287549,1.5168147754424595,-8.014825150874902,-1.163048398298422,-0.779466279532543,9.773907409588512,0.0,0.0,-0.002181661564992912,29.977414318891334,3.958666063654373,-60.0
1771528723.2867413,0.3835022026287549,1.5168147754424595,-8.014825150874902,-1.163048398298422,-0.779466279532543,9.773907409588512,0.0,0.0,-0.002181661564992912,29.977414318891334,3.958666063654373,-60.0
1771528723.2977636,0.3835022026287549,1.5168147754424595,-8.014825150874902,-1.160830165494192,-0.7782902636103348,9.775945449139849,0.0007819873101571123,0.0007605311583328291,-0.001090830782496456,31.088923202902226,4.429388116212846,-60.75
1771528723.3087096,0.3835022026287549,1.5168147754424595,-8.014825150874902,-1.1593539563422608,-0.7775076381510638,9.77730174169487,-0.0023245057786470537,-0.0007390750065085459,-0.001090830782496456,31.088923202902226,4.429388116212846,-60.75
1771528723.3195896,0.3835022026287549,1.5168147754424595,-8.014825150874902,-1.1593539563422608,-0.7775076381510638,9.77730174169487,-0.0023245057786470537,-0.0007390750065085459,-0.001090830782496456,31.088923202902226,4.429388116212846,-60.75
1771528723.330612,0.3835022026287549,1.5168147754424595,-8.014825150874902,-1.163101800397176,-0.7769210128047359,9.774859227532136,0.0007819873101571123,0.0007605311583328291,0.001090830782496456,31.088923202902226,4.429388116212846,-60.75
1771528723.3415422,0.3835022026287549,1.5168147754424595,-8.014825150874902,-1.163101800397176,-0.7769210128047359,9.774859227532136,0.0007819873101571123,0.0007605311583328291,0.001090830782496456,31.088923202902226,4.429388116212846,-60.75
1771528723.3532968,0.3835022026287549,1.5168147754424595,-8.014825150874902,-1.1655959487495606,-0.7765306201897891,9.773233761641508,-0.0007605311583328291,0.0007819873101571123,0.0,29.977414318891334,3.958666063654373,-60.75
1771528723.3648853,0.3835022026287549,1.5168147754424595,-8.014825150874902,-1.1648577558161746,-0.7739385943107602,9.77215203224894,-0.0030850369369798828,4.291230364856639e-05,0.0,29.977414318891334,3.958666063654373,-60.75
1771528723.3763247,0.3835022026287549,1.5168147754424595,-8.014825150874902,-1.1648577558161746,-0.7739385943107602,9.77215203224894,-0.0030850369369798828,4.291230364856639e-05,0.0,29.977414318891334,3.958666063654373,-60.75
1771528723.3880591,0.3835022026287549,1.5168147754424595,-8.014825150874902,-1.1643664966651615,-0.7722136300430926,9.771432153421895,-0.0007605311583328291,0.0007819873101571123,-0.002181661564992912,29.977414318891334,3.958666063654373,-60.75
1771528723.3995047,0.3835022026287549,1.5168147754424595,-8.014825150874902,-1.1643664966651615,-0.7722136300430926,9.771432153421895,-0.0007605311583328291,0.0007819873101571123,-0.002181661564992912,29.977414318891334,3.958666063654373,-60.75
1771528723.4111297,0.3835022026287549,1.5168147754424595,-8.014825150874902,-1.1617073452331335,-0.7734637063925088,9.774298193811388,0.0,0.0,0.001090830782496456,30.515069188948818,4.481568770382376,-61.5625
1771528723.4226658,0.3835022026287549,1.5168147754424595,-8.014825150874902,-1.1599377096597867,-0.7742956182387776,9.776205511674828,2.145615182428316e-05,0.0015425184684899414,0.001090830782496456,30.515069188948818,4.481568770382376,-61.5625
1771528723.4342167,0.3835022026287549,1.5168147754424595,-8.014825150874902,-1.1599377096597867,-0.7742956182387776,9.776205511674828,2.145615182428316e-05,0.0015425184684899414,0.001090830782496456,30.515069188948818,4.481568770382376,-61.5625
1771528723.446296,0.3835022026287549,1.5168147754424595,-8.014825150874902,-1.158760036953849,-0.7748492462794051,9.77747481040681,-0.0007819873101571123,-0.0007605311583328291,0.0,30.515069188948818,4.481568770382376,-61.5625
1771528723.4580688,0.3835022026287549,1.5168147754424595,-8.014825150874902,-1.158760036953849,-0.7748492462794051,9.77747481040681,-0.0007819873101571123,-0.0007605311583328291,0.0,30.515069188948818,4.481568770382376,-61.5625
1771528723.4700441,0.3835022026287549,1.5168147754424595,-8.014825150874902,-1.1579105120778312,-0.7704874348008237,9.778319514533948,-0.0007605311583328291,0.0007819873101571123,0.002181661564992912,30.543892251180004,3.3762066210921,-60.75
1771528723.4836643,0.3835022026287549,1.5168147754424595,-8.014825150874902,-1.1573451627626563,-0.7675846979864547,9.775536543987275,2.145615182428316e-05,0.0015425184684899414,-0.001090830782496456,30.543892251180004,3.3762066210921,-60.75
1771528723.4953113,0.3835022026287549,1.5168147754424595,-8.014825150874902,-1.1573451627626563,-0.7675846979864547,9.775536543987275,2.145615182428316e-05,0.0015425184684899414,-0.001090830782496456,30.543892251180004,3.3762066210921,-60.75
1771528723.5070221,0.3835022026287549,1.5168147754424595,-8.014825150874902,-1.1593669499092083,-0.76798518301694,9.783719843298242,-0.0015210623166656582,0.0015639746203142246,0.0,30.543892251180004,3.3762066210921,-60.75
1771528723.5187316,0.3835022026287549,1.5168147754424595,-8.014825150874902,-1.1593669499092083,-0.76798518301694,9.783719843298242,-0.0015210623166656582,0.0015639746203142246,0.0,30.543892251180004,3.3762066210921,-60.75
1771528723.5328352,0.3835022026287549,1.5168147754424595,-8.014825150874902,-1.1607782235160786,-0.7729819460862056,9.789165737576246,-0.0023245057786470537,-0.0007390750065085459,-0.001090830782496456,29.759538191087998,4.182688926178324,-60.25
1771528723.5473778,0.3835022026287549,1.5168147754424595,-8.014825150874902,-1.1607782235160786,-0.7729819460862056,9.789165737576246,-0.0023245057786470537,-0.0007390750065085459,-0.001090830782496456,29.759538191087998,4.182688926178324,-60.25
1771528723.5631225,0.3835022026287549,1.5168147754424595,-8.014825150874902,-1.1617174103364918,-0.776307236091301,9.792789919383633,-0.0015639746203142246,-0.0015210623166656582,0.002181661564992912,29.759538191087998,4.182688926178324,-60.25
1771528723.574717,0.3835022026287549,1.5168147754424595,-8.014825150874902,-1.1623424286740727,-0.778520179443769,9.791856660184367,0.0007819873101571123,0.0007605311583328291,0.0,29.759538191087998,4.182688926178324,-60.25
1771528723.5862815,0.3835022026287549,1.5168147754424595,-8.014825150874902,-1.1623424286740727,-0.778520179443769,9.791856660184367,0.0007819873101571123,0.0007605311583328291,0.0,29.759538191087998,4.182688926178324,-60.25
1771528723.5982077,0.3835022026287549,1.5168147754424595,-8.014825150874902,-1.1579623297949493,-0.775328420615133,9.784545363197804,-0.0007819873101571123,-0.0007605311583328291,0.001090830782496456,31.611825909630227,3.8917332461553618,-60.0
1771528723.610088,0.3835022026287549,1.5168147754424595,-8.014825150874902,-1.1579623297949493,-0.775328420615133,9.784545363197804,-0.0007819873101571123,-0.0007605311583328291,0.001090830782496456,31.611825909630227,3.8917332461553618,-60.0
1771528723.623355,0.3835022026287549,1.5168147754424595,-8.014825150874902,-1.1597118708293095,-0.7684082991680872,9.779679776725786,-0.0007819873101571123,-0.0007605311583328291,0.001090830782496456,31.611825909630227,3.8917332461553618,-60.0
1771528723.6356416,0.3835022026287549,1.5168147754424595,-8.014825150874902,-1.1597118708293095,-0.7684082991680872,9.779679776725786,-0.0007819873101571123,-0.0007605311583328291,0.001090830782496456,31.611825909630227,3.8917332461553618,-60.0
1771528723.6471188,0.3835022026287549,1.5168147754424595,-8.014825150874902,-1.1562117229345161,-0.7685990772487707,9.77644178328082,-0.0015425184684899414,2.1456151824283196e-05,0.001090830782496456,31.611825909630227,3.8917332461553618,-60.0
1771528723.6584847,0.3835022026287549,1.5168147754424595,-8.014825150874902,-1.1562117229345161,-0.7685990772487707,9.77644178328082,-0.0015425184684899414,2.1456151824283196e-05,0.001090830782496456,31.611825909630227,3.8917332461553618,-60.0
1771528723.670659,0.3835022026287549,1.5168147754424595,-8.014825150874902,-1.1562804344101805,-0.7710582618850879,9.780977158228591,0.0015425184684899414,-2.1456151824283196e-05,-0.001090830782496456,30.857524258713536,3.6812332000167682,-61.5625
1771528723.6824982,126.42658590154718,48.43243945545142,154.15154145946147,-1.158724181930113,-0.7750270457444178,9.783995399592875,-0.0007819873101571123,-0.0007605311583328291,0.001090830782496456,30.857524258713536,3.6812332000167682,-61.5625
1771528723.6934197,126.42658590154718,48.43243945545142,154.15154145946147,-1.158724181930113,-0.7750270457444178,9.783995399592875,-0.0007819873101571123,-0.0007605311583328291,0.001090830782496456,30.857524258713536,3.6812332000167682,-61.5625
1771528723.7055202,0.3835022026287549,1.5168147754424595,-8.014825150874902,-1.1626826925609326,-0.7752702062681458,9.78934911721216,-0.0007819873101571123,-0.0007605311583328291,0.0,30.857524258713536,3.6812332000167682,-61.5625
1771528723.7165973,0.3835022026287549,1.5168147754424595,-8.014825150874902,-1.1677150579667175,-0.7777642508351589,9.792911956482849,0.0008034434619813955,0.0023030496268227705,0.0,30.857524258713536,3.6812332000167682,-61.5625
1771528723.7274728,0.3835022026287549,1.5168147754424595,-8.014825150874902,-1.1677150579667175,-0.7777642508351589,9.792911956482849,0.0008034434619813955,0.0023030496268227705,0.0,30.857524258713536,3.6812332000167682,-61.5625
1771528723.7385044,0.3835022026287549,1.5168147754424595,-8.014825150874902,-1.1687318169743093,-0.7818220304346382,9.79528298621797,0.0007605311583328291,-0.0007819873101571123,0.001090830782496456,30.543892251180004,3.3762066210921,-61.5625
1771528723.7498567,0.3835022026287549,1.5168147754424595,-8.014825150874902,-1.1670104379354838,-0.7821902134749703,9.786825544898598,-0.003127949240628449,-0.0030421246333313164,0.001090830782496456,30.543892251180004,3.3762066210921,-61.5625
1771528723.7607362,0.3835022026287549,1.5168147754424595,-8.014825150874902,-1.1670104379354838,-0.7821902134749703,9.786825544898598,-0.003127949240628449,-0.0030421246333313164,0.001090830782496456,30.543892251180004,3.3762066210921,-61.5625
1771528723.7717996,0.3835022026287549,1.5168147754424595,-8.014825150874902,-1.1705293273237156,-0.7776391935745666,9.781197212176364,-0.0007390750065085459,0.0023245057786470537,-0.001090830782496456,30.543892251180004,3.3762066210921,-61.5625
1771528723.783028,0.3835022026287549,1.5168147754424595,-8.014825150874902,-1.1705293273237156,-0.7776391935745666,9.781197212176364,-0.0007390750065085459,0.0023245057786470537,-0.001090830782496456,30.543892251180004,3.3762066210921,-61.5625
1771528723.794265,0.3835022026287549,1.5168147754424595,-8.014825150874902,-1.1728711089030137,-0.7746105406690711,9.780796731329634,0.0015425184684899414,-2.1456151824283196e-05,-0.001090830782496456,30.543892251180004,3.3762066210921,-61.5625
1771528723.8055065,0.3835022026287549,1.5168147754424595,-8.014825150874902,-1.169765090475116,-0.7773910475936046,9.780530215799798,0.0023245057786470537,0.0007390750065085459,0.0,30.282440897816002,3.6450340561208416,-61.5625
1771528723.8164341,0.3835022026287549,1.5168147754424595,-8.014825150874902,-1.169765090475116,-0.7773910475936046,9.780530215799798,0.0023245057786470537,0.0007390750065085459,0.0,30.282440897816002,3.6450340561208416,-61.5625
