timestamp,yaw,pitch,roll,ax,ay,az,gx,gy,gz,mx,my,mz
1770155712.4153864,-0.04621542225701273,0.7189176186439539,-7.356330432696522,-0.06685495417433096,-0.6807991913461284,3.3451117073193837,0.001090830782496456,-0.001090830782496456,0.0,-14.6875,8.375,-21.5625
1770155712.5953057,-0.04621542225701273,0.7189176186439539,-7.356330432696522,-0.1242763019734534,-1.2221615138897648,9.363695765336626,-0.002181661564992912,0.0,-0.003272492347489368,-13.875,8.75,-22.375
1770155712.6094415,-0.04621542225701273,0.7189176186439539,-7.356330432696522,-0.13288116631586835,-1.2348189101772238,9.499609070547216,0.002181661564992912,0.001090830782496456,0.0,-15.6875,8.5,-21.5625
1770155712.6315203,-0.04621542225701273,0.7189176186439539,-7.356330432696522,-0.13288116631586835,-1.2348189101772238,9.499609070547216,0.002181661564992912,0.001090830782496456,0.0,-15.6875,8.5,-21.5625
1770155712.6477163,-0.04621542225701273,0.7189176186439539,-7.356330432696522,-0.12857227229115442,-1.2432422660141467,9.576677410084486,-0.001090830782496456,0.004363323129985824,0.001090830782496456,-15.6875,8.5,-21.5625
1770155712.6701078,-69.37997257438616,0.7150770440706766,-7.355049164782876,-0.1257047514512074,-1.2455028035212494,9.627965529136777,0.002181661564992912,0.001090830782496456,-0.001090830782496456,-15.6875,8.5,-21.5625
1770155712.6903777,-69.37997257438616,0.7150770440706766,-7.355049164782876,-0.1257047514512074,-1.2455028035212494,9.627965529136777,0.002181661564992912,0.001090830782496456,-0.001090830782496456,-15.6875,8.5,-21.5625
1770155712.7029228,-69.37997257438616,0.7150770440706766,-7.355049164782876,-0.1257047514512074,-1.2455028035212494,9.627965529136777,0.002181661564992912,0.001090830782496456,-0.001090830782496456,-15.6875,8.5,-21.5625
1770155712.7278383,-69.37997257438616,0.7150770440706766,-7.355049164782876,-0.1237964483645293,-1.2470071659803679,9.675477646269524,-0.001090830782496456,0.0,-0.001090830782496456,-13.875,8.0625,-21.0625
1770155712.74136,-69.37997257438616,0.7150770440706766,-7.355049164782876,-0.1237964483645293,-1.2470071659803679,9.675477646269524,-0.001090830782496456,0.0,-0.001090830782496456,-13.875,8.0625,-21.0625
1770155712.7750692,-34.649228939281045,0.7163269856409473,-7.354943511807558,0.6108263507461845,-1.0910003800913635,9.707096429476243,0.0,0.0,-0.001090830782496456,-13.875,8.0625,-21.0625
1770155712.8079636,-34.649228939281045,0.7163269856409473,-7.354943511807558,0.6124626753526365,-1.0879691383731478,9.728138376495364,-0.0021390632179808344,0.001172163610461709,0.001090830782496456,-16.554171228006872,-1.127792070299092,-22.0
1770155712.8261604,-34.58305698335483,0.7148332403233564,-7.350756642014273,0.6099571063763268,-1.0925114733649337,9.74214155718264,-0.0015178706528808424,0.0002754855226808584,-0.001090830782496456,-16.554171228006872,-1.127792070299092,-22.0
1770155712.8428626,-34.58305698335483,0.7148332403233564,-7.350756642014273,0.610194610264668,-1.0982840749487586,9.751460517504244,-0.0008966780877808504,-0.0006211925650999921,-0.001090830782496456,-16.554171228006872,-1.127792070299092,-22.0
1770155712.8605337,-34.58305698335483,0.7148332403233564,-7.350756642014273,0.610194610264668,-1.0982840749487586,9.751460517504244,-0.0008966780877808504,-0.0006211925650999921,-0.001090830782496456,-16.554171228006872,-1.127792070299092,-22.0
1770155712.8885953,-34.58305698335483,0.7148332403233564,-7.350756642014273,0.6076029380612689,-1.104030608871645,9.757662181498663,0.002760255783080827,-0.0020688416982425593,0.001090830782496456,-16.554171228006872,-1.127792070299092,-21.5625
1770155712.9049284,-34.58305698335483,0.7148332403233564,-7.350756642014273,0.6076029380612689,-1.104030608871645,9.757662181498663,0.002760255783080827,-0.0020688416982425593,0.001090830782496456,-16.554171228006872,-1.127792070299092,-21.5625
1770155712.9304843,-34.58879755488057,0.7144396754722198,-7.350537532564373,0.6058782091607823,-1.107854863004336,9.755099096195185,-0.00034570704241913364,0.002414548740661693,-0.002181661564992912,-16.554171228006872,-1.127792070299092,-21.5625
1770155712.961571,-34.58879755488057,0.7144396754722198,-7.350537532564373,0.6058782091607823,-1.107854863004336,9.755099096195185,-0.00034570704241913364,0.002414548740661693,-0.002181661564992912,-16.554171228006872,-1.127792070299092,-21.5625
1770155713.0212317,-34.59316250060567,0.7199605944672277,-7.354902478289475,0.6017653535728829,-1.1002457441928943,9.753393391557259,0.0006211925650999921,-0.0008966780877808504,0.001090830782496456,-16.305029242290924,-1.487423160381019,-21.1875
1770155713.054754,-34.52876063519508,0.7182897195000804,-7.350101515478086,0.599028294122743,-1.0951819606233064,9.752258264174689,0.0008966780877808504,0.0006211925650999921,-0.002181661564992912,-16.305029242290924,-1.487423160381019,-21.1875
1770155713.072735,-34.4372035803194,0.7144433925290896,-7.351528305768568,0.6046112004626641,-1.0907519335058407,9.75484796128911,0.0021390632179808344,-0.001172163610461709,-0.001090830782496456,-16.945680062703357,-0.5626575001703492,-21.5625
1770155713.0848427,-34.4372035803194,0.7144433925290896,-7.351528305768568,0.6046112004626641,-1.0907519335058407,9.75484796128911,0.0021390632179808344,-0.001172163610461709,-0.001090830782496456,-16.945680062703357,-0.5626575001703492,-21.5625
1770155713.1004984,-34.4372035803194,0.7144433925290896,-7.351528305768568,0.6102314943197673,-1.0905535283338106,9.759916487497266,0.0002754855226808584,0.0015178706528808426,0.0,-16.945680062703357,-0.5626575001703492,-21.5625
1770155713.1140816,-34.4372035803194,0.7144433925290896,-7.351528305768568,0.6120668050458375,-1.0876717635201576,9.763289535069646,0.0,0.0,-0.001090830782496456,-16.945680062703357,-0.5626575001703492,-21.5625
1770155713.1265,-34.4372035803194,0.7144433925290896,-7.351528305768568,0.6120668050458375,-1.0876717635201576,9.763289535069646,0.0,0.0,-0.001090830782496456,-16.945680062703357,-0.5626575001703492,-21.5625
1770155713.1399436,-34.45305223239835,0.719181639000144,-7.355448953854327,0.6124433874973111,-1.0904086416691274,9.765534260549654,0.0008966780877808504,0.0006211925650999921,0.0,-16.305029242290924,-1.487423160381019,-22.0
1770155713.1529424,-34.45305223239835,0.719181639000144,-7.355448953854327,0.6126939989120651,-1.0922300035043349,9.767028100281372,-0.003035741305761685,0.0005509710453617168,-0.001090830782496456,-16.305029242290924,-1.487423160381019,-22.0
1770155713.1647096,-34.45305223239835,0.719181639000144,-7.355448953854327,0.6126939989120651,-1.0922300035043349,9.767028100281372,-0.003035741305761685,0.0005509710453617168,-0.001090830782496456,-16.305029242290924,-1.487423160381019,-22.0
1770155713.1789806,-34.4627615810578,0.7185688354976918,-7.355624557623981,0.6101110496210731,-1.0953470315127567,9.768022233935548,-0.0006211925650999921,0.0008966780877808504,0.0,-16.305029242290924,-1.487423160381019,-22.0
1770155713.1911232,-34.4627615810578,0.7185688354976918,-7.355624557623981,0.6101110496210731,-1.0953470315127567,9.768022233935548,-0.0006211925650999921,0.0008966780877808504,0.0,-16.305029242290924,-1.487423160381019,-22.0
1770155713.2127051,-34.4627615810578,0.7185688354976918,-7.355624557623981,0.608392125721352,-1.0974213788328768,9.768683818777202,0.0,0.0,-0.002181661564992912,-17.47893688821754,-1.768442890711526,-21.5625
1770155713.2255905,-34.4372035803194,0.7144433925290896,-7.351528305768568,0.6072482010677258,-1.098801833802439,9.769124096098935,0.003035741305761685,-0.0005509710453617168,0.002181661564992912,-17.47893688821754,-1.768442890711526,-21.5625
1770155713.240671,-34.4372035803194,0.7144433925290896,-7.351528305768568,0.6166410492062429,-1.0967554433928803,9.769417095738328,-0.0008966780877808504,-0.0006211925650999921,0.0,-17.47893688821754,-1.768442890711526,-21.5625
1770155713.2540956,-34.4372035803194,0.7144433925290896,-7.351528305768568,0.6166410492062429,-1.0967554433928803,9.769417095738328,-0.0008966780877808504,-0.0006211925650999921,0.0,-17.47893688821754,-1.768442890711526,-21.5625
1770155713.267782,-34.41203941803059,0.7160622758987679,-7.351396031146486,0.6228918847174373,-1.0953935934349979,9.766266972018006,-0.002414548740661693,-0.0003457070424191337,0.001090830782496456,-16.245916007936646,-0.9142417968282819,-20.375
1770155713.279453,-34.41203941803059,0.7160622758987679,-7.351396031146486,0.6228918847174373,-1.0953935934349979,9.766266972018006,-0.002414548740661693,-0.0003457070424191337,0.001090830782496456,-16.245916007936646,-0.9142417968282819,-20.375
1770155713.2975695,-34.41203941803059,0.7160622758987679,-7.351396031146486,0.6207074928127715,-1.1029518220479935,9.764170599871319,0.0006211925650999921,-0.0008966780877808504,0.001090830782496456,-16.245916007936646,-0.9142417968282819,-20.375
1770155713.310886,-34.38083590836587,0.20933983032347026,-8.086767921968534,0.6192538044014727,-1.1079817387589963,9.766120599333028,-0.002414548740661693,-0.0003457070424191337,0.0,-16.245916007936646,-0.9142417968282819,-20.375
1770155713.3226342,-34.38083590836587,0.20933983032347026,-8.086767921968534,0.6192538044014727,-1.1079817387589963,9.766120599333028,-0.002414548740661693,-0.0003457070424191337,0.0,-16.245916007936646,-0.9142417968282819,-20.375
1770155713.3361058,-34.43145764799264,0.7148373046322706,-7.351746932806315,0.616381458949481,-1.1085793637543195,9.767418302191874,-0.0024847702603999684,0.0035867123511234018,0.001090830782496456,-16.66466033237285,-1.7365651460969669,-21.1875
1770155713.3490071,-34.43145764799264,0.7148373046322706,-7.351746932806315,0.6144699451373816,-1.1089770765127984,9.768281908948147,-0.0006211925650999921,0.0008966780877808504,0.0,-16.66466033237285,-1.7365651460969669,-21.1875
1770155713.3609753,-34.43145764799264,0.7148373046322706,-7.351746932806315,0.6144699451373816,-1.1089770765127984,9.768281908948147,-0.0006211925650999921,0.0008966780877808504,0.0,-16.66466033237285,-1.7365651460969669,-21.1875
1770155713.373013,-34.43145764799264,0.7148373046322706,-7.351746932806315,0.6186973108244338,-1.1054318858047518,9.768856629597327,0.0,0.0,-0.001090830782496456,-16.66466033237285,-1.7365651460969669,-21.1875
1770155713.4050562,-34.43145764799264,0.7148373046322706,-7.351746932806315,0.621510575466398,-1.1030726009909217,9.769239099769305,-0.002414548740661693,-0.0003457070424191337,-0.001090830782496456,-16.9138023180888,-1.3769340560150398,2026.0
1770155713.4385822,-34.377166770927275,0.7182934506287225,-7.351087176070827,0.6195729075533283,-1.0960030665262603,9.772838741103604,-0.0008966780877808504,-0.0006211925650999921,-0.001090830782496456,-16.9138023180888,-1.3769340560150398,2026.0
1770155713.4728696,-34.377166770927275,0.7182934506287225,-7.351087176070827,0.6127839544263534,-1.0951082344179743,9.771889150493632,-0.0002754855226808584,-0.0015178706528808426,0.0,-16.9138023180888,-1.3769340560150398,2026.0
1770155713.4897685,-34.21586144852326,0.7189119406560311,-7.351896064286336,0.608265981957927,-1.0945127336458396,9.771257208550319,-0.001172163610461709,-0.002139063217980835,0.0,-16.07229027250439,0.042401607996947914,-22.375
1770155713.5033057,-34.21586144852326,0.7189119406560311,-7.351896064286336,0.6145686426313163,-1.0958060272040875,9.770836658246298,-0.0021390632179808344,0.001172163610461709,-0.002181661564992912,-16.07229027250439,0.042401607996947914,-22.375
1770155713.5171685,-34.21586144852326,0.7189119406560311,-7.351896064286336,0.6145686426313163,-1.0958060272040875,9.770836658246298,-0.0021390632179808344,0.001172163610461709,-0.002181661564992912,-16.07229027250439,0.042401607996947914,-22.375
1770155713.5295615,-34.21586144852326,0.7189119406560311,-7.351896064286336,0.618762992904124,-1.0966666996200658,9.767211675009506,-0.0017933561755617009,-0.0012423851301999842,0.0,-16.07229027250439,0.042401607996947914,-22.375
1770155713.5426245,-34.21586144852326,0.7189119406560311,-7.351896064286336,0.6196493541036792,-1.0944897391105606,9.768144400866458,0.0,0.0,0.001090830782496456,-17.05616916706934,-1.1714305759682242,-21.5625
1770155713.5545313,-34.21586144852326,0.7189119406560311,-7.351896064286336,0.6196493541036792,-1.0944897391105606,9.768144400866458,0.0,0.0,0.001090830782496456,-17.05616916706934,-1.1714305759682242,-21.5625
1770155713.56628,-34.21586144852326,0.7189119406560311,-7.351896064286336,0.6147397608046838,-1.096850860315799,9.768765119505028,-0.0015178706528808424,0.0002754855226808584,-0.001090830782496456,-17.05616916706934,-1.1714305759682242,-21.5625
1770155713.577872,-34.21586144852326,0.7189119406560311,-7.351896064286336,0.6147397608046838,-1.096850860315799,9.768765119505028,-0.0015178706528808424,0.0002754855226808584,-0.001090830782496456,-17.05616916706934,-1.1714305759682242,-21.5625
1770155713.5909646,-34.21586144852326,0.7189119406560311,-7.351896064286336,0.6114724813079532,-1.098422160102433,9.769178200825115,-0.0015178706528808424,0.0002754855226808584,0.0,-17.05616916706934,-1.1714305759682242,-21.5625
1770155713.6024094,-34.21586144852326,0.7189119406560311,-7.351896064286336,0.6065484149127843,-1.1013727746109052,9.769453101829212,0.0,0.0,0.001090830782496456,-16.554171228006872,-1.127792070299092,-21.5625
1770155713.6139746,-34.21586144852326,0.7189119406560311,-7.351896064286336,0.6065484149127843,-1.1013727746109052,9.769453101829212,0.0,0.0,0.001090830782496456,-16.554171228006872,-1.127792070299092,-21.5625
1770155713.6260133,-34.21010791960316,0.7193064438318831,-7.352113716786041,0.6051764357852613,-1.1060861039937677,9.769636045376593,-0.0008966780877808504,-0.0006211925650999921,0.0,-16.554171228006872,-1.127792070299092,-21.5625
1770155713.6373994,-34.21010791960316,0.7193064438318831,-7.352113716786041,0.6051764357852613,-1.1060861039937677,9.769636045376593,-0.0008966780877808504,-0.0006211925650999921,0.0,-16.554171228006872,-1.127792070299092,-21.5625
1770155713.6499288,-34.21010791960316,0.7193064438318831,-7.352113716786041,0.6078579237248655,-1.1026631795526538,9.769757792263762,0.0018635776952999762,-0.0026900342633425518,0.0,-16.554171228006872,-1.127792070299092,-21.5625
1770155713.661993,-34.21010791960316,0.7193064438318831,-7.352113716786041,0.6096424239944892,-1.100385261573664,9.769838813457172,0.0006211925650999921,-0.0008966780877808504,-0.001090830782496456,-16.245916007936646,-0.9142417968282819,-22.0
1770155713.674614,-34.21010791960316,0.7193064438318831,-7.352113716786041,0.6096424239944892,-1.100385261573664,9.769838813457172,0.0006211925650999921,-0.0008966780877808504,-0.001090830782496456,-16.245916007936646,-0.9142417968282819,-22.0
1770155713.6948538,-34.22556724910438,0.7182997896942351,-7.352072860126017,0.6144245137127096,-1.0923097401105877,9.763202508741681,0.00034570704241913364,-0.002414548740661693,0.001090830782496456,-16.245916007936646,-0.9142417968282819,-22.0
1770155713.728998,-34.18099160669929,0.7211426741049416,-7.351582519451116,0.6195118730537787,-1.0896852991743937,9.765476345500542,-0.0015178706528808424,0.0002754855226808584,0.003272492347489368,-16.245916007936646,-0.9142417968282819,-22.0
1770155713.7439163,-34.18099160669929,0.7211426741049416,-7.351582519451116,0.6146482687017392,-1.0936535592073906,9.760299335048503,-0.0018635776952999762,0.0026900342633425518,0.0,-17.305311152785283,-0.811799485886297,-21.5625
1770155713.762648,-34.18099160669929,0.7211426741049416,-7.351582519451116,0.6114115943354772,-1.0962943919309809,9.763544315838306,0.0012423851301999842,-0.0017933561755617009,0.001090830782496456,-17.305311152785283,-0.811799485886297,-21.5625
1770155713.774359,-34.18099160669929,0.7211426741049416,-7.351582519451116,0.6114115943354772,-1.0962943919309809,9.763544315838306,0.0012423851301999842,-0.0017933561755617009,0.001090830782496456,-17.305311152785283,-0.811799485886297,-21.5625
1770155713.8019345,-34.20040217851028,0.7199185699174222,-7.351936749128416,0.6147570804767475,-1.0942419725024242,9.76570381430511,0.0015178706528808424,-0.0002754855226808584,-0.001090830782496456,-17.305311152785283,-0.811799485886297,-21.5625
1770155713.8181748,-34.20040217851028,0.7199185699174222,-7.351936749128416,0.6188883961852698,-1.0956258386877447,9.773831159826228,-0.0015178706528808424,0.0002754855226808584,0.001090830782496456,-16.305029242290924,-1.487423160381019,-21.5625
1770155713.8310463,-34.20040217851028,0.7199185699174222,-7.351936749128416,0.6216377406394711,-1.0965467861752773,9.779239817482134,0.0008966780877808504,0.0006211925650999921,-0.001090830782496456,-16.305029242290924,-1.487423160381019,-21.5625
1770155713.8430645,-34.20040217851028,0.7199185699174222,-7.351936749128416,0.6216377406394711,-1.0965467861752773,9.779239817482134,0.0008966780877808504,0.0006211925650999921,-0.001090830782496456,-16.305029242290924,-1.487423160381019,-21.5625
1770155713.8598812,-34.20040217851028,0.7199185699174222,-7.351936749128416,0.6234673986615522,-1.0971596664405727,9.782839218733475,-0.0018635776952999762,0.0026900342633425518,0.001090830782496456,-16.305029242290924,-1.487423160381019,-21.5625
1770155713.8769746,-34.190696740834504,0.720530646682651,-7.351759683344403,0.620030355195594,-1.0967227350758437,9.781889468350975,-0.0009668996075191258,0.0033112268284425437,-0.001090830782496456,-15.937660787866424,-0.7006915233574709,-22.375
1770155713.8889885,-34.190696740834504,0.720530646682651,-7.351759683344403,0.620030355195594,-1.0967227350758437,9.781889468350975,-0.0009668996075191258,0.0033112268284425437,-0.001090830782496456,-15.937660787866424,-0.7006915233574709,-22.375
1770155713.9048254,-34.190696740834504,0.720530646682651,-7.351759683344403,0.6149933127752921,-1.0983368941864955,9.771222084958872,0.002760255783080827,-0.0020688416982425593,-0.001090830782496456,-15.937660787866424,-0.7006915233574709,-22.375
1770155713.9171748,-34.20040217851028,0.7199185699174222,-7.351936749128416,0.6061417605360361,-1.1032209631493675,9.774158395595865,0.0008966780877808504,0.0006211925650999921,-0.003272492347489368,-15.937660787866424,-0.7006915233574709,-22.375
1770155713.9341865,-34.20040217851028,0.7199185699174222,-7.351936749128416,0.6057506081751243,-1.102661392379462,9.769422254109406,-0.0002754855226808584,-0.0015178706528808426,0.0,-17.170681668147317,-1.5548926172407158,-21.5625
1770155713.9461868,-34.20040217851028,0.7199185699174222,-7.351936749128416,0.6057506081751243,-1.102661392379462,9.769422254109406,-0.0002754855226808584,-0.0015178706528808426,0.0,-17.170681668147317,-1.5548926172407158,-21.5625
1770155713.9579306,-34.20040217851028,0.7199185699174222,-7.351936749128416,0.6128946894774274,-1.1012288685648308,9.766270404856336,0.0,0.0,-0.001090830782496456,-17.170681668147317,-1.5548926172407158,-21.5625
1770155713.9703403,-34.20040217851028,0.7199185699174222,-7.351936749128416,0.6128946894774274,-1.1012288685648308,9.766270404856336,0.0,0.0,-0.001090830782496456,-17.170681668147317,-1.5548926172407158,-21.5625
1770155713.9851022,-34.20040217851028,0.7199185699174222,-7.351936749128416,0.6203987241674909,-1.0983706079154973,9.764172884386879,0.001172163610461709,0.002139063217980835,0.001090830782496456,-17.170681668147317,-1.5548926172407158,-21.5625
1770155714.0005422,-34.20040217851028,0.7199185699174222,-7.351936749128416,0.6234876433751322,-1.0937187389942316,9.766122119652614,-0.0009668996075191258,0.0033112268284425437,0.0,-17.62130373719808,-1.5629394106647103,-20.75
1770155714.0122826,-34.20040217851028,0.7199185699174222,-7.351936749128416,0.6234876433751322,-1.0937187389942316,9.766122119652614,-0.0009668996075191258,0.0033112268284425437,0.0,-17.62130373719808,-1.5629394106647103,-20.75
1770155714.0250564,-34.29135461584881,0.7140555219624549,-7.35230093594796,0.6227935562143311,-1.0925279042449458,9.767419313947576,0.0006211925650999921,-0.0008966780877808504,0.0,-17.62130373719808,-1.5629394106647103,-20.75
1770155714.0375938,-34.29135461584881,0.7140555219624549,-7.35230093594796,0.6227935562143311,-1.0925279042449458,9.767419313947576,0.0006211925650999921,-0.0008966780877808504,0.0,-17.62130373719808,-1.5629394106647103,-20.75
1770155714.0512378,-34.29135461584881,0.7140555219624549,-7.35230093594796,0.6176769885212459,-1.09089062068683,9.761592358845625,0.0012423851301999842,-0.0017933561755617009,-0.001090830782496456,-17.62130373719808,-1.5629394106647103,-20.75
1770155714.067668,-34.27589691202884,0.7150620790071974,-7.352342946426759,0.6142719698773037,-1.0898010267685596,9.75771458531663,0.00034570704241913364,-0.002414548740661693,-0.001090830782496456,-16.696538076987412,-0.9222885902522764,-21.5625
1770155714.0794036,-34.27589691202884,0.7150620790071974,-7.352342946426759,0.6142719698773037,-1.0898010267685596,9.75771458531663,0.00034570704241913364,-0.002414548740661693,-0.001090830782496456,-16.696538076987412,-0.9222885902522764,-21.5625
1770155714.0921874,-34.27589691202884,0.7150620790071974,-7.352342946426759,0.6120059680063107,-1.0890759141875124,9.761824193765293,0.0017933561755617009,0.0012423851301999842,-0.001090830782496456,-16.696538076987412,-0.9222885902522764,-21.5625
1770155714.104086,-34.27589691202884,0.7150620790071974,-7.352342946426759,0.6132476974620623,-1.0866884278118276,9.764559092280543,0.0012423851301999842,-0.0017933561755617009,0.0,-16.696538076987412,-0.9222885902522764,-21.5625
1770155714.1172483,-34.27589691202884,0.7150620790071974,-7.352342946426759,0.6132476974620623,-1.0866884278118276,9.764559092280543,0.0012423851301999842,-0.0017933561755617009,0.0,-16.696538076987412,-0.9222885902522764,-21.5625
1770155714.1389842,-34.27014539423787,0.7154563617277049,-7.35256101634776,0.6168237829318359,-1.083194650245744,9.766379136691622,0.0021390632179808344,-0.001172163610461709,0.0,-17.05616916706934,-1.1714305759682242,-21.5625
1770155714.1576889,-34.27014539423787,0.7154563617277049,-7.35256101634776,0.6192036278644781,-1.0808695803035677,9.767590355915967,-0.0002754855226808584,-0.0015178706528808426,0.002181661564992912,-17.05616916706934,-1.1714305759682242,-21.5625
1770155714.1956704,-34.27589691202884,0.7150620790071974,-7.352342946426759,0.6097884745305502,-1.0869420004419263,9.768396408779564,-0.0015178706528808424,0.0002754855226808584,-0.002181661564992912,-16.9138023180888,-1.3769340560150398,-22.0
1770155714.211839,-34.25073216107582,0.7166809592341468,-7.35220825923406,0.6035227951609751,-1.0909831282106264,9.768932827956087,-0.0021390632179808344,0.001172163610461709,-0.001090830782496456,-16.9138023180888,-1.3769340560150398,-22.0
1770155714.2317126,-34.25073216107582,0.7166809592341468,-7.35220825923406,0.6035227951609751,-1.0909831282106264,9.768932827956087,-0.0021390632179808344,0.001172163610461709,-0.001090830782496456,-16.9138023180888,-1.3769340560150398,-22.0
1770155714.2505794,-34.25073216107582,0.7166809592341468,-7.35220825923406,0.6021027839207453,-1.091767521545305,9.769289808925869,-0.0006211925650999921,0.0008966780877808504,0.0,-16.9138023180888,-1.3769340560150398,-22.0
1770155714.2688065,-34.18099160669929,0.7211426741049416,-7.351582519451116,0.611311899519967,-1.0893244587761763,9.77287248748084,-7.022151973827537e-05,0.003932419393542536,-0.002181661564992912,-16.945680062703357,-0.5626575001703492,-21.5625
1770155714.2848785,-34.18099160669929,0.7211426741049416,-7.351582519451116,0.611311899519967,-1.0893244587761763,9.77287248748084,-7.022151973827537e-05,0.003932419393542536,-0.002181661564992912,-16.945680062703357,-0.5626575001703492,-21.5625
1770155714.299582,-34.18099160669929,0.7211426741049416,-7.351582519451116,0.6091912779146936,-1.0934134239532283,9.781946943452668,0.0002754855226808584,0.0015178706528808426,0.001090830782496456,-16.945680062703357,-0.5626575001703492,-21.5625
1770155714.3191376,-34.2061559511363,0.7195240423400426,-7.351719170305901,0.6077800279252797,-1.0961345846018227,9.781295669118967,0.0015178706528808424,-0.0002754855226808584,0.001090830782496456,-16.945680062703357,-0.5626575001703492,-21.5625
1770155714.3359346,-34.2061559511363,0.7195240423400426,-7.351719170305901,0.60684085682202,-1.0979454866161058,9.77751714161778,0.0006211925650999921,-0.0008966780877808504,0.001090830782496456,-16.305029242290924,-1.487423160381019,-22.375
1770155714.3532357,-34.2061559511363,0.7195240423400426,-7.351719170305901,0.60684085682202,-1.0979454866161058,9.77751714161778,0.0006211925650999921,-0.0008966780877808504,0.001090830782496456,-16.305029242290924,-1.487423160381019,-22.375
1770155714.3675106,-34.2061559511363,0.7195240423400426,-7.351719170305901,0.6062158489440294,-1.0991506216775102,9.76831235036002,0.0015178706528808424,-0.0002754855226808584,0.002181661564992912,-16.305029242290924,-1.487423160381019,-22.375
1770155714.3891354,-34.18099160669929,0.7211426741049416,-7.351582519451116,0.609394437905982,-1.0933930331045647,9.762186664602236,0.0017933561755617009,0.0012423851301999842,0.001090830782496456,-16.305029242290924,-1.487423160381019,-22.375
1770155714.4065416,-34.18099160669929,0.7211426741049416,-7.351582519451116,0.609394437905982,-1.0933930331045647,9.762186664602236,0.0017933561755617009,0.0012423851301999842,0.001090830782496456,-16.305029242290924,-1.487423160381019,-22.375
1770155714.4249496,-34.17523695168939,0.7215372994336823,-7.351799926267453,0.6115097533529962,-1.0895614222257477,9.758110089158825,-0.0021390632179808344,0.001172163610461709,0.001090830782496456,-16.696538076987412,-0.9222885902522764,-28.75
1770155714.4403613,-34.17523695168939,0.7215372994336823,-7.351799926267453,0.6082628117123284,-1.086166731652831,9.755397173739565,0.0008966780877808504,0.0006211925650999921,0.001090830782496456,-16.696538076987412,-0.9222885902522764,-28.75
1770155714.4587824,-34.17523695168939,0.7215372994336823,-7.351799926267453,0.6080069403742147,-1.0866573313857313,9.756936870540619,0.0008966780877808504,0.0006211925650999921,0.002181661564992912,-16.696538076987412,-0.9222885902522764,-28.75
1770155714.478297,-34.17523695168939,0.7215372994336823,-7.351799926267453,0.6080069403742147,-1.0866573313857313,9.756936870540619,0.0008966780877808504,0.0006211925650999921,0.002181661564992912,-16.696538076987412,-0.9222885902522764,-28.75
1770155714.4934263,-34.11458966589993,0.7156830585148652,-7.353155844868346,0.6050869324689723,-1.0888887520806545,9.75796152156218,0.0026900342633425518,0.0018635776952999762,0.001090830782496456,-16.080027636846964,-0.49518804331065525,-21.5625
1770155714.5119846,-34.11458966589993,0.7156830585148652,-7.353155844868346,0.6031436998266589,-1.0903737376265232,9.758643415370926,-0.0012423851301999842,0.0017933561755617009,0.0,-16.080027636846964,-0.49518804331065525,-21.5625
1770155714.5274258,-34.11458966589993,0.7156830585148652,-7.353155844868346,0.6031436998266589,-1.0903737376265232,9.758643415370926,-0.0012423851301999842,0.0017933561755617009,0.0,-16.080027636846964,-0.49518804331065525,-21.5625
1770155714.5462706,-34.11458966589993,0.7156830585148652,-7.353155844868346,0.6046002285985282,-1.0894570468658875,9.762442319790713,0.0036569338708616773,-0.0014476491331425674,0.0,-16.080027636846964,-0.49518804331065525,-21.5625
1770155714.5627847,-34.11458966589993,0.7156830585148652,-7.353155844868346,0.6074744642787507,-1.0915967277927892,9.764970448245538,0.0002754855226808584,0.0015178706528808426,0.0,-16.554171228006872,-1.127792070299092,-21.1875
1770155714.5759108,-34.11458966589993,0.7156830585148652,-7.353155844868346,0.6074744642787507,-1.0915967277927892,9.764970448245538,0.0002754855226808584,0.0015178706528808426,0.0,-16.554171228006872,-1.127792070299092,-21.1875
1770155714.594009,-34.124293959896214,0.7150708996032782,-7.353332929943479,0.6093872360166226,-1.0930206615478402,9.773343112905819,0.0012423851301999842,-0.0017933561755617009,0.003272492347489368,-16.554171228006872,-1.127792070299092,-21.1875
1770155714.607924,-34.124293959896214,0.7150708996032782,-7.353332929943479,0.6125650962941518,-1.0967180019434422,9.778915027708443,0.0002754855226808584,0.0015178706528808426,0.003272492347489368,-16.554171228006872,-1.127792070299092,-21.1875
1770155714.6208127,-34.11458966589993,0.7156830585148652,-7.353155844868346,0.6119301984218243,-1.1010834727277528,9.782623074767223,-0.0018635776952999762,0.0026900342633425518,0.0,-17.562190502843805,-0.989758047111973,-22.375
1770155714.6373625,-34.11458966589993,0.7156830585148652,-7.353155844868346,0.6119301984218243,-1.1010834727277528,9.782623074767223,-0.0018635776952999762,0.0026900342633425518,0.0,-17.562190502843805,-0.989758047111973,-22.375
1770155714.6498907,-34.11458966589993,0.7156830585148652,-7.353155844868346,0.6115076809800642,-1.1039886447692075,9.78174562695592,0.0006211925650999921,-0.0008966780877808504,0.002181661564992912,-17.562190502843805,-0.989758047111973,-22.375
1770155714.6626546,-34.11458966589993,0.7156830585148652,-7.353155844868346,0.6139762287304,-1.1040170722568619,9.781161695239234,0.0006211925650999921,-0.0008966780877808504,0.0,-17.562190502843805,-0.989758047111973,-22.375
1770155714.674762,-34.11458966589993,0.7156830585148652,-7.353155844868346,0.6139762287304,-1.1040170722568619,9.781161695239234,0.0006211925650999921,-0.0008966780877808504,0.0,-17.562190502843805,-0.989758047111973,-22.375
1770155714.6886466,-34.149676989739504,0.7174006735992934,-7.3477132772166165,0.6145588839646893,-1.096631601603308,9.770737760082767,0.0,0.0,0.001090830782496456,-17.562190502843805,-0.989758047111973,-22.375
1770155714.701143,-34.149676989739504,0.7174006735992934,-7.3477132772166165,0.6121969061264255,-1.0936215854375169,9.763800747679122,0.0021390632179808344,-0.001172163610461709,0.002181661564992912,-16.66466033237285,-1.7365651460969669,-21.5625
1770155714.7147198,-34.13975475791332,0.7140641372406006,-7.353292233247863,0.61337476464808,-1.0897135212502307,9.759184243416003,-0.0008966780877808504,-0.0006211925650999921,0.0,-16.66466033237285,-1.7365651460969669,-21.5625
1770155714.7287033,-34.13975475791332,0.7140641372406006,-7.353292233247863,0.61337476464808,-1.0897135212502307,9.759184243416003,-0.0008966780877808504,-0.0006211925650999921,0.0,-16.66466033237285,-1.7365651460969669,-21.5625
1770155714.7410207,-34.13975475791332,0.7140641372406006,-7.353292233247863,0.6207182088307691,-1.090707272912489,9.762802234813268,0.0002754855226808584,0.0015178706528808426,0.002181661564992912,-16.66466033237285,-1.7365651460969669,-21.5625
1770155714.7536297,-34.13975475791332,0.7140641372406006,-7.353292233247863,0.6207182088307691,-1.090707272912489,9.762802234813268,0.0002754855226808584,0.0015178706528808426,0.002181661564992912,-16.66466033237285,-1.7365651460969669,-21.5625
1770155714.7677794,-34.13975475791332,0.7140641372406006,-7.353292233247863,0.6217953247966305,-1.0858691467667927,9.758519744257896,0.0015178706528808424,-0.0002754855226808584,0.002181661564992912,-17.05616916706934,-1.1714305759682242,-20.75
1770155714.780158,-34.079720803595244,0.7179139633003739,-7.352841291587463,0.6142629482757437,-1.0883642240213498,9.76236001804649,-0.0012423851301999842,0.0017933561755617009,-0.001090830782496456,-17.05616916706934,-1.1714305759682242,-20.75
1770155714.7926471,-34.079720803595244,0.7179139633003739,-7.352841291587463,0.6092502358432526,-1.0900246700624183,9.764915677354129,0.0008966780877808504,0.0006211925650999921,-0.002181661564992912,-17.05616916706934,-1.1714305759682242,-20.75
1770155714.8066978,-34.079720803595244,0.7179139633003739,-7.352841291587463,0.6092502358432526,-1.0900246700624183,9.764915677354129,0.0008966780877808504,0.0006211925650999921,-0.002181661564992912,-17.05616916706934,-1.1714305759682242,-20.75
1770155714.822373,-34.13997225630832,0.7180123591177296,-7.347536218974172,0.6114137884910923,-1.08731981424828,9.769961551782098,0.0005509710453617168,0.0030357413057616853,-0.001090830782496456,-16.921539682431373,-1.9145237073226429,-22.0
1770155714.8352144,-34.13997225630832,0.7180123591177296,-7.347536218974172,0.612853608609763,-1.0855197629191902,9.7733195248478,0.0,0.0,-0.001090830782496456,-16.921539682431373,-1.9145237073226429,-22.0
1770155714.8473413,-34.13997225630832,0.7180123591177296,-7.347536218974172,0.612853608609763,-1.0855197629191902,9.7733195248478,0.0,0.0,-0.001090830782496456,-16.921539682431373,-1.9145237073226429,-22.0
1770155714.8597877,-34.13997225630832,0.7180123591177296,-7.347536218974172,0.6138117928148938,-1.0843218488675719,9.772209106704688,0.002760255783080827,-0.0020688416982425593,0.002181661564992912,-16.921539682431373,-1.9145237073226429,-22.0
1770155714.8724678,-34.13997225630832,0.7180123591177296,-7.347536218974172,0.6138117928148938,-1.0843218488675719,9.772209106704688,0.002760255783080827,-0.0020688416982425593,0.002181661564992912,-16.921539682431373,-1.9145237073226429,-22.0
1770155714.8853512,-34.079720803595244,0.7179139633003739,-7.352841291587463,0.6089499969237936,-1.0873345145538682,9.771470135834631,-0.0015178706528808424,0.0002754855226808584,0.004363323129985824,-17.305311152785283,-0.811799485886297,-20.375
1770155714.8978305,-34.079720803595244,0.7179139633003739,-7.352841291587463,0.607619458121121,-1.0920891383024158,9.774323470682774,-0.0018635776952999762,0.0026900342633425518,-0.003272492347489368,-17.305311152785283,-0.811799485886297,-20.375
1770155714.9100072,-34.079720803595244,0.7179139633003739,-7.352841291587463,0.6067339994110347,-1.0952532872944467,9.776222333150374,-0.0008966780877808504,-0.0006211925650999921,-0.001090830782496456,-17.305311152785283,-0.811799485886297,-20.375
1770155714.9243038,-34.079720803595244,0.7179139633003739,-7.352841291587463,0.6067339994110347,-1.0952532872944467,9.776222333150374,-0.0008966780877808504,-0.0006211925650999921,-0.001090830782496456,-17.305311152785283,-0.811799485886297,-20.375
1770155714.936775,-34.03909351185764,0.7205395123042038,-7.352742408550404,0.6061447365306941,-1.0973589931027832,9.777486004910877,0.002414548740661693,0.0003457070424191337,0.002181661564992912,-15.321150347725977,-0.2735909764158488,-22.0
1770155714.949054,-34.03909351185764,0.7205395123042038,-7.352742408550404,0.6061447365306941,-1.0973589931027832,9.777486004910877,0.002414548740661693,0.0003457070424191337,0.002181661564992912,-15.321150347725977,-0.2735909764158488,-22.0
1770155714.961521,-34.03909351185764,0.7205395123042038,-7.352742408550404,0.6057525886663252,-1.0987603167959559,9.768291629229395,-0.0008966780877808504,-0.0006211925650999921,-0.001090830782496456,-15.321150347725977,-0.2735909764158488,-22.0
1770155714.9742055,-34.03909351185764,0.7205395123042038,-7.352742408550404,0.6054916186431663,-1.099692882059951,9.762172874921276,0.0,0.0,-0.003272492347489368,-15.321150347725977,-0.2735909764158488,-22.0
1770155714.9863415,-34.03909351185764,0.7205395123042038,-7.352742408550404,0.6054916186431663,-1.099692882059951,9.762172874921276,0.0,0.0,-0.003272492347489368,-15.321150347725977,-0.2735909764158488,-22.0
1770155714.9986427,-34.03909351185764,0.7205395123042038,-7.352742408550404,0.6108174027839761,-1.0965036297196316,9.758100912280186,0.0002754855226808584,0.0015178706528808426,-0.001090830782496456,-16.554171228006872,-1.127792070299092,-21.1875
1770155715.011546,-34.03909351185764,0.7205395123042038,-7.352742408550404,0.6124567205837421,-1.091631489525434,9.758736178336664,0.001172163610461709,0.002139063217980835,0.001090830782496456,-16.554171228006872,-1.127792070299092,-21.1875
1770155715.024141,-34.03909351185764,0.7205395123042038,-7.352742408550404,0.6124567205837421,-1.091631489525434,9.758736178336664,0.001172163610461709,0.002139063217980835,0.001090830782496456,-16.554171228006872,-1.127792070299092,-21.1875
1770155715.0366237,-33.99412821795794,0.7176213414139705,-7.348305391241373,0.6107979398791088,-1.0902940667046033,9.762504052508183,-0.004278126435961669,0.002344327220923418,0.0,-16.554171228006872,-1.127792070299092,-21.1875
1770155715.0487916,-33.99412821795794,0.7176213414139705,-7.348305391241373,0.6107541755680438,-1.096808415586364,9.765011530679415,0.002414548740661693,0.0003457070424191337,0.0,-16.554171228006872,-1.127792070299092,-21.1875
1770155715.0617309,-33.99412821795794,0.7176213414139705,-7.348305391241373,0.6107541755680438,-1.096808415586364,9.765011530679415,0.002414548740661693,0.0003457070424191337,0.0,-16.554171228006872,-1.127792070299092,-21.1875
1770155715.0746574,-34.03909351185764,0.7205395123042038,-7.352742408550404,0.6107250509079094,-1.1011436419971308,9.766680229392003,0.0006211925650999921,-0.0008966780877808504,0.0,-16.080027636846964,-0.49518804331065525,-22.0
1770155715.0868506,-34.03909351185764,0.7205395123042038,-7.352742408550404,0.6115504651068957,-1.0993740263048102,9.767790729744645,0.0002754855226808584,0.0015178706528808426,-0.001090830782496456,-16.080027636846964,-0.49518804331065525,-22.0
1770155715.0990055,-34.03909351185764,0.7205395123042038,-7.352742408550404,0.6115504651068957,-1.0993740263048102,9.767790729744645,0.0002754855226808584,0.0015178706528808426,-0.001090830782496456,-16.080027636846964,-0.49518804331065525,-22.0
1770155715.1112778,-34.03909351185764,0.7205395123042038,-7.352742408550404,0.6120997690358404,-1.0981963668294732,9.771874867031546,0.0014476491331425676,0.0036569338708616773,0.002181661564992912,-16.080027636846964,-0.49518804331065525,-22.0
1770155715.1286037,-34.035150193660385,0.7207564779863072,-7.352347469997438,0.6124653246644262,-1.097412647603955,9.771247703065857,0.0008966780877808504,0.0006211925650999921,0.001090830782496456,-16.245916007936646,-0.9142417968282819,-21.5625
1770155715.142815,-34.035150193660385,0.7207564779863072,-7.352347469997438,0.6124653246644262,-1.097412647603955,9.771247703065857,0.0008966780877808504,0.0006211925650999921,0.001090830782496456,-16.245916007936646,-0.9142417968282819,-21.5625
1770155715.1678848,-34.035150193660385,0.7207564779863072,-7.352347469997438,0.612708597851726,-1.09689109121409,9.77083033245257,0.0005509710453617168,0.0030357413057616853,0.0,-16.245916007936646,-0.9142417968282819,-21.5625
1770155715.1874866,-34.029390626352836,0.7211513973838052,-7.352564415961919,0.6128704934403345,-1.0965440012628012,9.763862353557126,-0.0009668996075191258,0.0033112268284425437,0.0,-16.696538076987412,-0.9222885902522764,-22.0
1770155715.200629,-34.029390626352836,0.7211513973838052,-7.352564415961919,0.6128704934403345,-1.0965440012628012,9.763862353557126,-0.0009668996075191258,0.0033112268284425437,0.0,-16.696538076987412,-0.9222885902522764,-22.0
1770155715.222981,-34.029390626352836,0.7211513973838052,-7.352564415961919,0.6102285047580632,-1.0982179488305033,9.759225241439632,-0.0002754855226808584,-0.0015178706528808426,0.002181661564992912,-16.696538076987412,-0.9222885902522764,-22.0
1770155715.2376225,-34.009590946615134,0.716615199773089,-7.348266276928913,0.6084702908029591,-1.0993319422375893,9.759484406832694,0.0008966780877808504,0.0006211925650999921,0.0,-16.696538076987412,-0.9222885902522764,-22.0
1770155715.2514765,-34.009590946615134,0.716615199773089,-7.348266276928913,0.6084702908029591,-1.0993319422375893,9.759484406832694,0.0008966780877808504,0.0006211925650999921,0.0,-16.696538076987412,-0.9222885902522764,-22.0
1770155715.2654057,-34.009590946615134,0.716615199773089,-7.348266276928913,0.6073002190563741,-1.1000732924058836,9.76300199021403,0.0008966780877808504,0.0006211925650999921,-0.002181661564992912,-17.305311152785283,-0.811799485886297,-22.75
1770155715.277756,-34.01968804661138,0.7217632328316358,-7.352386325395512,0.6092712777675775,-1.0986617206084233,9.76534290266033,-0.0002754855226808584,-0.0015178706528808426,0.001090830782496456,-17.305311152785283,-0.811799485886297,-22.75
1770155715.2899418,-34.01968804661138,0.7217632328316358,-7.352386325395512,0.6092712777675775,-1.0986617206084233,9.76534290266033,-0.0002754855226808584,-0.0015178706528808426,0.001090830782496456,-17.305311152785283,-0.811799485886297,-22.75
1770155715.3028371,-34.01968804661138,0.7217632328316358,-7.352386325395512,0.6124879273747508,-1.1004720637335017,9.766900753743634,-0.0002754855226808584,-0.0015178706528808426,0.0,-17.305311152785283,-0.811799485886297,-22.75
1770155715.3163688,-33.922353354663905,0.7183202924279598,-7.354044257218269,0.6127236397029582,-1.0989270984723856,9.764592374529919,0.0012423851301999842,-0.0017933561755617009,-0.002181661564992912,-16.9138023180888,-1.3769340560150398,-22.375
1770155715.3287156,-33.922353354663905,0.7183202924279598,-7.354044257218269,0.6127236397029582,-1.0989270984723856,9.764592374529919,0.0012423851301999842,-0.0017933561755617009,-0.002181661564992912,-16.9138023180888,-1.3769340560150398,-22.375
1770155715.3412414,-33.922353354663905,0.7183202924279598,-7.354044257218269,0.6147854356773369,-1.1006486697375035,9.763056173949476,0.0,0.0,0.0,-16.9138023180888,-1.3769340560150398,-22.375
1770155715.3539696,-33.922353354663905,0.7183202924279598,-7.354044257218269,0.612347673760444,-1.0962948994072328,9.768724073038316,0.00310596282549996,-0.004483390438904253,-0.001090830782496456,-16.9138023180888,-1.3769340560150398,-22.375
1770155715.3681533,-33.922353354663905,0.7183202924279598,-7.354044257218269,0.612347673760444,-1.0962948994072328,9.768724073038316,0.00310596282549996,-0.004483390438904253,-0.001090830782496456,-16.9138023180888,-1.3769340560150398,-22.375
1770155715.3806882,-33.877785205698395,0.7211627188285183,-7.353546314711641,0.6126303024893727,-1.0961472422752367,9.772495996567356,0.0015178706528808424,-0.0002754855226808584,0.001090830782496456,-16.945680062703357,-0.5626575001703492,-22.0
1770155715.3933246,-33.877785205698395,0.7211627188285183,-7.353546314711641,0.6126303024893727,-1.0961472422752367,9.772495996567356,0.0015178706528808424,-0.0002754855226808584,0.001090830782496456,-16.945680062703357,-0.5626575001703492,-22.0
1770155715.4075878,-33.877785205698395,0.7211627188285183,-7.353546314711641,0.610913456698269,-1.0932992497153338,9.775006169540786,0.0012423851301999842,-0.0017933561755617009,0.002181661564992912,-16.945680062703357,-0.5626575001703492,-22.0
1770155715.4205015,-33.877785205698395,0.7211627188285183,-7.353546314711641,0.6125206433907114,-1.0894990104278437,9.769986438199496,0.0017933561755617009,0.0012423851301999842,-0.001090830782496456,-16.945680062703357,-0.5626575001703492,-22.0
1770155715.433208,-33.82705774480931,0.7186336726740045,-7.349329423051846,0.6135902081810802,-1.0869699936334736,9.766645863065941,0.0009668996075191258,-0.0033112268284425437,0.0,-17.305311152785283,-0.811799485886297,-20.375
1770155715.4472365,-33.82705774480931,0.7186336726740045,-7.349329423051846,0.6135902081810802,-1.0869699936334736,9.766645863065941,0.0009668996075191258,-0.0033112268284425437,0.0,-17.305311152785283,-0.811799485886297,-20.375
1770155715.4595387,-33.82705774480931,0.7186336726740045,-7.349329423051846,0.6143019916012491,-1.0852869612077887,9.767767859338548,-0.0008966780877808504,-0.0006211925650999921,0.002181661564992912,-17.305311152785283,-0.811799485886297,-20.375
1770155715.4716597,-33.82705774480931,0.7186336726740045,-7.349329423051846,0.6143019916012491,-1.0852869612077887,9.767767859338548,-0.0008966780877808504,-0.0006211925650999921,0.002181661564992912,-17.305311152785283,-0.811799485886297,-20.375
1770155715.4861164,-33.81735817849131,0.7192449719674125,-7.349150513681184,0.6130860828463056,-1.0934762428112672,9.76851453532445,0.0015178706528808424,-0.0002754855226808584,-0.001090830782496456,-17.305311152785283,-0.811799485886297,-20.375
1770155715.4987545,-33.81735817849131,0.7192449719674125,-7.349150513681184,0.6122769091524816,-1.0989261182381127,9.76566632814483,0.0008966780877808504,0.0006211925650999921,-0.002181661564992912,-16.388282856917186,-0.7087383167814663,-22.375
1770155715.5108724,-33.81735817849131,0.7192449719674125,-7.349150513681184,0.6117384130983041,-1.102552949455581,9.763770878083351,0.0006211925650999921,-0.0008966780877808504,0.003272492347489368,-16.388282856917186,-0.7087383167814663,-22.375
1770155715.5252037,-33.81735817849131,0.7192449719674125,-7.349150513681184,0.6117384130983041,-1.102552949455581,9.763770878083351,0.0006211925650999921,-0.0008966780877808504,0.003272492347489368,-16.388282856917186,-0.7087383167814663,-22.375
1770155715.5376735,-33.89325042286642,0.7201557410228827,-7.3535086026081515,0.6075701858835721,-1.0994671083404508,9.76585458894832,0.0,0.0,0.001090830782496456,-16.388282856917186,-0.7087383167814663,-22.375
1770155715.5497866,-33.89325042286642,0.7201557410228827,-7.3535086026081515,0.602046548846319,-1.0993184476024715,9.767241275252383,0.0,0.0,-0.001090830782496456,-16.388282856917186,-0.7087383167814663,-22.375
1770155715.5625904,-33.89325042286642,0.7201557410228827,-7.3535086026081515,0.602046548846319,-1.0993184476024715,9.767241275252383,0.0,0.0,-0.001090830782496456,-16.388282856917186,-0.7087383167814663,-22.375
1770155715.575008,-33.89325042286642,0.7201557410228827,-7.3535086026081515,0.5983706301010958,-1.0992195155419955,9.761473876082796,0.0006211925650999921,-0.0008966780877808504,0.0,-17.313048517127857,-1.3493891371939002,-20.75
1770155715.5875223,-33.89325042286642,0.7201557410228827,-7.3535086026081515,0.6041735324028464,-1.0934388812017848,9.757635736361507,-0.001172163610461709,-0.002139063217980835,0.002181661564992912,-17.313048517127857,-1.3493891371939002,-20.75
1770155715.5997875,-33.89325042286642,0.7201557410228827,-7.3535086026081515,0.6041735324028464,-1.0934388812017848,9.757635736361507,-0.001172163610461709,-0.002139063217980835,0.002181661564992912,-17.313048517127857,-1.3493891371939002,-20.75
1770155715.6126199,-33.89325042286642,0.7201557410228827,-7.3535086026081515,0.6080352990619953,-1.0895919336222908,9.755081497251819,0.0015880921726191177,-0.004207904916223394,0.0,-17.313048517127857,-1.3493891371939002,-20.75
1770155715.6248,-33.89325042286642,0.7201557410228827,-7.3535086026081515,0.6080352990619953,-1.0895919336222908,9.755081497251819,0.0015880921726191177,-0.004207904916223394,0.0,-17.313048517127857,-1.3493891371939002,-20.75
1770155715.640541,-33.857989755997146,0.7166209470962297,-7.349254091557053,0.6078555332469008,-1.088936765034394,9.756726791364361,0.0018635776952999762,-0.0026900342633425518,0.001090830782496456,-15.321150347725977,-0.2735909764158488,-22.0
1770155715.653644,-33.857989755997146,0.7166209470962297,-7.349254091557053,0.611545765211143,-1.0940002144338568,9.75782171621712,-0.00034570704241913364,0.002414548740661693,0.0,-15.321150347725977,-0.2735909764158488,-22.0
1770155715.6658518,-33.857989755997146,0.7166209470962297,-7.349254091557053,0.6140015733607541,-1.0973698834467636,9.761895488182835,-0.0021390632179808344,0.001172163610461709,-0.001090830782496456,-15.321150347725977,-0.2735909764158488,-22.0
1770155715.6780334,-33.857989755997146,0.7166209470962297,-7.349254091557053,0.6140015733607541,-1.0973698834467636,9.761895488182835,-0.0021390632179808344,0.001172163610461709,-0.001090830782496456,-15.321150347725977,-0.2735909764158488,-22.0
1770155715.6903334,-33.84252403362696,0.7176272864619002,-7.349291892449658,0.6128861578631479,-1.1015172925862198,9.764606537919006,0.0,0.0,0.001090830782496456,-15.321150347725977,-0.2735909764158488,-22.0
1770155715.7028975,-33.84252403362696,0.7176272864619002,-7.349291892449658,0.6121438613094984,-1.104277347038932,9.766410711234018,0.0,0.0,-0.001090830782496456,-15.680781437807903,-0.5227329621317949,-21.5625
1770155715.717008,-33.84252403362696,0.7176272864619002,-7.349291892449658,0.6121438613094984,-1.104277347038932,9.766410711234018,0.0,0.0,-0.001090830782496456,-15.680781437807903,-0.5227329621317949,-21.5625
1770155715.7295184,-33.84252403362696,0.7176272864619002,-7.349291892449658,0.6097449391920047,-1.1033644040573856,9.764266256713903,-0.0021390632179808344,0.001172163610461709,-0.001090830782496456,-15.680781437807903,-0.5227329621317949,-21.5625
1770155715.7416832,-33.84252403362696,0.7176272864619002,-7.349291892449658,0.6174578042025962,-1.104446443371332,9.76952936960053,-0.002414548740661693,-0.0003457070424191337,0.003272492347489368,-15.680781437807903,-0.5227329621317949,-21.5625
1770155715.756048,-33.84252403362696,0.7176272864619002,-7.349291892449658,0.6174578042025962,-1.104446443371332,9.76952936960053,-0.002414548740661693,-0.0003457070424191337,0.003272492347489368,-15.680781437807903,-0.5227329621317949,-21.5625
1770155715.768606,-33.84252403362696,0.7176272864619002,-7.349291892449658,0.6206856976557613,-1.1024168000595942,9.773031912433758,0.0006211925650999921,-0.0008966780877808504,-0.001090830782496456,-16.554171228006872,-1.127792070299092,-29.5625
1770155715.7886584,-33.84252403362696,0.7176272864619002,-7.349291892449658,0.6206856976557613,-1.1024168000595942,9.773031912433758,0.0006211925650999921,-0.0008966780877808504,-0.001090830782496456,-16.554171228006872,-1.127792070299092,-29.5625
1770155715.808943,-33.84252403362696,0.7176272864619002,-7.349291892449658,0.6228338246909102,-1.101066095108234,9.775362815563303,-0.0015178706528808424,0.0002754855226808584,0.001090830782496456,-16.554171228006872,-1.127792070299092,-29.5625
1770155715.8308434,-33.84252403362696,0.7176272864619002,-7.349291892449658,0.6196087187956167,-1.0993224197165048,9.773568893850804,-0.0008966780877808504,-0.0006211925650999921,-0.001090830782496456,-16.554171228006872,-1.127792070299092,-29.5625
1770155715.8454645,-33.84252403362696,0.7176272864619002,-7.349291892449658,0.6174624468490925,-1.0981620232214395,9.772375058990553,0.0017933561755617009,0.0012423851301999842,-0.002181661564992912,-16.07229027250439,0.042401607996947914,-22.0
1770155715.861325,-33.84252403362696,0.7176272864619002,-7.349291892449658,0.616034126844109,-1.0973897923164515,9.771580575227066,-0.0002754855226808584,-0.0015178706528808426,-0.001090830782496456,-16.07229027250439,0.042401607996947914,-22.0
1770155715.8749466,-33.84252403362696,0.7176272864619002,-7.349291892449658,0.616034126844109,-1.0973897923164515,9.771580575227066,-0.0002754855226808584,-0.0015178706528808426,-0.001090830782496456,-16.07229027250439,0.042401607996947914,-22.0
1770155715.8879147,-33.84252403362696,0.7176272864619002,-7.349291892449658,0.6178333242241704,-1.0949709492225306,9.771051855157431,-0.0015178706528808424,0.0002754855226808584,0.002181661564992912,-16.07229027250439,0.042401607996947914,-22.0
1770155715.901326,-33.84252403362696,0.7176272864619002,-7.349291892449658,0.6190306699822496,-1.0933612361637741,9.770699997857278,0.0012423851301999842,-0.0017933561755617009,-0.001090830782496456,-15.823148286788445,-0.31722948208497925,-21.5625
1770155715.914118,-33.84252403362696,0.7176272864619002,-7.349291892449658,0.6190306699822496,-1.0933612361637741,9.770699997857278,0.0012423851301999842,-0.0017933561755617009,-0.001090830782496456,-15.823148286788445,-0.31722948208497925,-21.5625
1770155715.926992,-33.84252403362696,0.7176272864619002,-7.349291892449658,0.6198274902090227,-1.0922899901048446,9.77046584075453,0.0,0.0,0.0,-15.823148286788445,-0.31722948208497925,-21.5625
1770155715.9392219,-33.84252403362696,0.7176272864619002,-7.349291892449658,0.6176080367808773,-1.0934820198722657,9.773655123525677,-0.0017933561755617009,-0.0012423851301999842,0.001090830782496456,-15.823148286788445,-0.31722948208497925,-21.5625
1770155715.951714,-33.84252403362696,0.7176272864619002,-7.349291892449658,0.6176080367808773,-1.0934820198722657,9.773655123525677,-0.0017933561755617009,-0.0012423851301999842,0.001090830782496456,-15.823148286788445,-0.31722948208497925,-21.5625
1770155715.9652543,-33.84252403362696,0.7176272864619002,-7.349291892449658,0.6133812869293678,-1.0961802344196752,9.775777555583252,-0.0008966780877808504,-0.0006211925650999921,0.001090830782496456,-16.637424842633134,-0.3491072266995391,-22.75
1770155715.9790332,-33.84252403362696,0.7176272864619002,-7.349291892449658,0.6105684321190779,-1.0979758660599448,9.777190010408448,-0.0021390632179808344,0.001172163610461709,-0.002181661564992912,-16.637424842633134,-0.3491072266995391,-22.75
1770155715.9930596,-33.84252403362696,0.7176272864619002,-7.349291892449658,0.6105684321190779,-1.0979758660599448,9.777190010408448,-0.0021390632179808344,0.001172163610461709,-0.002181661564992912,-16.637424842633134,-0.3491072266995391,-22.75
1770155716.005464,-33.84252403362696,0.7176272864619002,-7.349291892449658,0.606791576611441,-1.0964211104700268,9.771439759901824,-0.0006211925650999921,0.0008966780877808504,0.001090830782496456,-16.637424842633134,-0.3491072266995391,-22.75
1770155716.0178366,-33.84252403362696,0.7176272864619002,-7.349291892449658,0.6070278498493471,-1.093481505939658,9.770958144131493,0.0018635776952999762,-0.0026900342633425518,-0.001090830782496456,-16.945680062703357,-0.5626575001703492,-20.75
1770155716.0300536,-33.84252403362696,0.7176272864619002,-7.349291892449658,0.6070278498493471,-1.093481505939658,9.770958144131493,0.0018635776952999762,-0.0026900342633425518,-0.001090830782496456,-16.945680062703357,-0.5626575001703492,-20.75
1770155716.0433567,-33.84252403362696,0.7176272864619002,-7.349291892449658,0.6090900191028644,-1.09427496035023,9.76060229909438,0.0015880921726191177,-0.004207904916223394,0.002181661564992912,-16.945680062703357,-0.5626575001703492,-20.75
1770155716.0555286,-33.84252403362696,0.7176272864619002,-7.349291892449658,0.6104623697051403,-1.094802995396999,9.763745935026508,0.0012423851301999842,-0.0017933561755617009,0.001090830782496456,-16.945680062703357,-0.5626575001703492,-20.75
1770155716.0698996,-33.84252403362696,0.7176272864619002,-7.349291892449658,0.6104623697051403,-1.094802995396999,9.763745935026508,0.0012423851301999842,-0.0017933561755617009,0.001090830782496456,-16.945680062703357,-0.5626575001703492,-20.75
1770155716.0826333,-33.84252403362696,0.7176272864619002,-7.349291892449658,0.6113756537007942,-1.0951543968220858,9.765837989622625,0.0012423851301999842,-0.0017933561755617009,0.0,-16.245916007936646,-0.9142417968282819,-21.5625
1770155716.0947952,-33.84252403362696,0.7176272864619002,-7.349291892449658,0.6113756537007942,-1.0951543968220858,9.765837989622625,0.0012423851301999842,-0.0017933561755617009,0.0,-16.245916007936646,-0.9142417968282819,-21.5625
1770155716.1071684,-33.84252403362696,0.7176272864619002,-7.349291892449658,0.613888366050887,-1.0981379789330679,9.767230228586559,0.00034570704241913364,-0.002414548740661693,0.0,-16.245916007936646,-0.9142417968282819,-21.5625
1770155716.1215734,-33.84252403362696,0.7176272864619002,-7.349291892449658,0.6155605480510379,-1.1001235194991306,9.774846971479368,-0.0008966780877808504,-0.0006211925650999921,0.0,-16.245916007936646,-0.9142417968282819,-21.5625
1770155716.1361625,-33.84252403362696,0.7176272864619002,-7.349291892449658,0.6166733664926413,-1.101444874565904,9.779915828789939,0.0015178706528808424,-0.0002754855226808584,-0.001090830782496456,-15.823148286788445,-0.31722948208497925,-21.5625
1770155716.1537573,-33.84252403362696,0.7176272864619002,-7.349291892449658,0.6166733664926413,-1.101444874565904,9.779915828789939,0.0015178706528808424,-0.0002754855226808584,-0.001090830782496456,-15.823148286788445,-0.31722948208497925,-21.5625
1770155716.1693332,-33.84252403362696,0.7176272864619002,-7.349291892449658,0.6155090026814959,-1.0995744932143403,9.783289096707279,-0.0021390632179808344,0.001172163610461709,0.0,-15.823148286788445,-0.31722948208497925,-21.5625
1770155716.1877196,-33.84252403362696,0.7176272864619002,-7.349291892449658,0.6147341315719747,-1.0983297753184034,9.785533968824396,0.0002754855226808584,0.0015178706528808426,0.001090830782496456,-15.823148286788445,-0.31722948208497925,-21.5625
1770155716.203123,-33.84252403362696,0.7176272864619002,-7.349291892449658,0.6147341315719747,-1.0983297753184034,9.785533968824396,0.0002754855226808584,0.0015178706528808426,0.001090830782496456,-15.823148286788445,-0.31722948208497925,-21.5625
1770155716.2230597,-33.84252403362696,0.7176272864619002,-7.349291892449658,0.6142184635044657,-1.0975014294630674,9.780337682726834,-0.0002754855226808584,-0.0015178706528808426,0.001090830782496456,-16.245916007936646,-0.9142417968282819,-20.75
1770155716.238797,-33.84252403362696,0.7176272864619002,-7.349291892449658,0.6138752921659283,-1.0969501745495707,9.786914947497184,0.0018635776952999762,-0.0026900342633425518,0.0,-16.245916007936646,-0.9142417968282819,-20.75
1770155716.2539296,-33.84252403362696,0.7176272864619002,-7.349291892449658,0.6108971870856087,-1.0984882526155955,9.781256708607032,0.0,0.0,-0.001090830782496456,-16.245916007936646,-0.9142417968282819,-20.75
1770155716.2662468,-33.84252403362696,0.7176272864619002,-7.349291892449658,0.6108971870856087,-1.0984882526155955,9.781256708607032,0.0,0.0,-0.001090830782496456,-16.245916007936646,-0.9142417968282819,-20.75
1770155716.278756,-33.84252403362696,0.7176272864619002,-7.349291892449658,0.6108202234753055,-1.1022615547750751,9.777491213832304,-0.0008966780877808504,-0.0006211925650999921,-0.002181661564992912,-16.554171228006872,-1.127792070299092,-21.5625
1770155716.290828,-33.84252403362696,0.7176272864619002,-7.349291892449658,0.6135187334403865,-1.102867713158626,9.771640207415738,0.0012423851301999842,-0.0017933561755617009,0.0,-16.554171228006872,-1.127792070299092,-21.5625
1770155716.3035896,-33.84252403362696,0.7176272864619002,-7.349291892449658,0.6135187334403865,-1.102867713158626,9.771640207415738,0.0012423851301999842,-0.0017933561755617009,0.0,-16.554171228006872,-1.127792070299092,-21.5625
1770155716.315837,-33.84252403362696,0.7176272864619002,-7.349291892449658,0.6180642900658143,-1.1013661727386104,9.767746428005536,0.00034570704241913364,-0.002414548740661693,0.001090830782496456,-16.554171228006872,-1.127792070299092,-21.5625
1770155716.3279145,-33.84252403362696,0.7176272864619002,-7.349291892449658,0.6180642900658143,-1.1013661727386104,9.767746428005536,0.00034570704241913364,-0.002414548740661693,0.001090830782496456,-16.554171228006872,-1.127792070299092,-21.5625
1770155716.3440156,-33.84252403362696,0.7176272864619002,-7.349291892449658,0.6191843751698061,-1.0976171859743975,9.765155161304413,-0.0015178706528808424,0.0002754855226808584,0.0,-16.66466033237285,-1.7365651460969669,-20.75
1770155716.3579628,-33.84252403362696,0.7176272864619002,-7.349291892449658,0.6171800509063443,-1.097027209214776,9.763430702261163,-0.0012423851301999842,0.0017933561755617009,-0.001090830782496456,-16.66466033237285,-1.7365651460969669,-20.75
1770155716.3702707,-33.84252403362696,0.7176272864619002,-7.349291892449658,0.6158461954987795,-1.0966345862717202,9.765628205738668,-0.0008966780877808504,-0.0006211925650999921,0.002181661564992912,-16.66466033237285,-1.7365651460969669,-20.75
1770155716.382872,-33.84252403362696,0.7176272864619002,-7.349291892449658,0.6158461954987795,-1.0966345862717202,9.765628205738668,-0.0008966780877808504,-0.0006211925650999921,0.002181661564992912,-16.66466033237285,-1.7365651460969669,-20.75
1770155716.3952036,-33.84252403362696,0.7176272864619002,-7.349291892449658,0.6168634616782223,-1.099123028477,9.760400396340588,-0.0012423851301999842,0.0017933561755617009,-0.002181661564992912,-17.05616916706934,-1.1714305759682242,-22.0
1770155716.4073153,-33.84252403362696,0.7176272864619002,-7.349291892449658,0.6168634616782223,-1.099123028477,9.760400396340588,-0.0012423851301999842,0.0017933561755617009,-0.002181661564992912,-17.05616916706934,-1.1714305759682242,-22.0
1770155716.4215372,-33.84252403362696,0.7176272864619002,-7.349291892449658,0.6175404409570336,-1.1007790589668929,9.76361157099926,0.0008966780877808504,0.0006211925650999921,-0.001090830782496456,-17.05616916706934,-1.1714305759682242,-22.0
1770155716.434732,-33.84252403362696,0.7176272864619002,-7.349291892449658,0.6160860310516927,-1.0991314003708461,9.765748571863435,-0.0012423851301999842,0.0017933561755617009,-0.001090830782496456,-17.05616916706934,-1.1714305759682242,-22.0
1770155716.4478283,-33.84252403362696,0.7176272864619002,-7.349291892449658,0.6160860310516927,-1.0991314003708461,9.765748571863435,-0.0012423851301999842,0.0017933561755617009,-0.001090830782496456,-17.05616916706934,-1.1714305759682242,-22.0
1770155716.4632404,-33.84252403362696,0.7176272864619002,-7.349291892449658,0.6132132054534755,-1.0952851735927314,9.76717072206668,0.001172163610461709,0.002139063217980835,-0.002181661564992912,-17.305311152785283,-0.811799485886297,-22.375
1770155716.4764938,-33.84252403362696,0.7176272864619002,-7.349291892449658,0.6140511004974244,-1.0908206205840285,9.768117147140481,0.0012423851301999842,-0.0017933561755617009,-0.001090830782496456,-17.305311152785283,-0.811799485886297,-22.375
1770155716.4895918,-33.84252403362696,0.7176272864619002,-7.349291892449658,0.6146087102892716,-1.0878495104290618,9.768746982454834,-0.0006211925650999921,0.0008966780877808504,0.0,-17.305311152785283,-0.811799485886297,-22.375
1770155716.5029497,-33.84252403362696,0.7176272864619002,-7.349291892449658,0.6146087102892716,-1.0878495104290618,9.768746982454834,-0.0006211925650999921,0.0008966780877808504,0.0,-17.305311152785283,-0.811799485886297,-22.375
1770155716.5161195,-33.84252403362696,0.7176272864619002,-7.349291892449658,0.6113852686538764,-1.0924318623044762,9.769166130820816,-0.002414548740661693,-0.0003457070424191337,0.001090830782496456,-17.313048517127857,-1.3493891371939002,-21.1875
1770155716.5301063,-33.84252403362696,0.7176272864619002,-7.349291892449658,0.6045854438126896,-1.0946365699543779,9.762754845961544,-0.0008966780877808504,-0.0006211925650999921,0.002181661564992912,-17.313048517127857,-1.3493891371939002,-21.1875
1770155716.543417,-33.84252403362696,0.7176272864619002,-7.349291892449658,0.6045854438126896,-1.0946365699543779,9.762754845961544,-0.0008966780877808504,-0.0006211925650999921,0.002181661564992912,-17.313048517127857,-1.3493891371939002,-21.1875
1770155716.5556993,-33.84252403362696,0.7176272864619002,-7.349291892449658,0.6019651683929361,-1.0988535066551872,9.758488207506442,0.0006211925650999921,-0.0008966780877808504,-0.001090830782496456,-17.313048517127857,-1.3493891371939002,-21.1875
1770155716.5695016,-33.84252403362696,0.7176272864619002,-7.349291892449658,0.6084705895354784,-1.0959450347641988,9.762339030690685,-0.0006211925650999921,0.0008966780877808504,-0.001090830782496456,-17.170681668147317,-1.5548926172407158,-19.5625
1770155716.5816953,-33.84252403362696,0.7176272864619002,-7.349291892449658,0.6084705895354784,-1.0959450347641988,9.762339030690685,-0.0006211925650999921,0.0008966780877808504,-0.001090830782496456,-17.170681668147317,-1.5548926172407158,-19.5625
1770155716.5946245,-33.84252403362696,0.7176272864619002,-7.349291892449658,0.6155496030235224,-1.09210454715747,9.764901710503285,0.003035741305761685,-0.0005509710453617168,0.001090830782496456,-17.170681668147317,-1.5548926172407158,-19.5625
1770155716.6067429,-33.84252403362696,0.7176272864619002,-7.349291892449658,0.6202606074220536,-1.0895487455562494,9.76660714529156,-0.0017933561755617009,-0.0012423851301999842,0.0,-17.170681668147317,-1.5548926172407158,-19.5625
1770155716.6213622,-33.84252403362696,0.7176272864619002,-7.349291892449658,0.6202606074220536,-1.0895487455562494,9.76660714529156,-0.0017933561755617009,-0.0012423851301999842,0.0,-17.170681668147317,-1.5548926172407158,-19.5625
1770155716.6346622,-33.84252403362696,0.7176272864619002,-7.349291892449658,0.615991339394877,-1.0889080238588855,9.767742093092204,-0.0017933561755617009,-0.0012423851301999842,0.001090830782496456,-16.080027636846964,-0.49518804331065525,-21.5625
1770155716.6503353,-33.84252403362696,0.7176272864619002,-7.349291892449658,0.6150551212666757,-1.0912313591146183,9.768497388175335,0.0006211925650999921,-0.0008966780877808504,0.0,-16.080027636846964,-0.49518804331065525,-21.5625
1770155716.6640759,-33.84252403362696,0.7176272864619002,-7.349291892449658,0.6150551212666757,-1.0912313591146183,9.768497388175335,0.0006211925650999921,-0.0008966780877808504,0.0,-16.080027636846964,-0.49518804331065525,-21.5625
1770155716.677004,-33.84252403362696,0.7176272864619002,-7.349291892449658,0.6116823501726016,-1.094682444826989,9.76900002861596,0.0015178706528808424,-0.0002754855226808584,-0.001090830782496456,-16.080027636846964,-0.49518804331065525,-21.5625
1770155716.6897955,-33.84252403362696,0.7176272864619002,-7.349291892449658,0.609437808685817,-1.0969791038174181,9.769334530214334,-0.0002754855226808584,-0.0015178706528808426,0.001090830782496456,-15.842336983104166,-2.1553094705331697,-22.375
1770155716.702247,-33.84252403362696,0.7176272864619002,-7.349291892449658,0.609437808685817,-1.0969791038174181,9.769334530214334,-0.0002754855226808584,-0.0015178706528808426,0.001090830782496456,-15.842336983104166,-2.1553094705331697,-22.375
1770155716.7155082,-33.84252403362696,0.7176272864619002,-7.349291892449658,0.611538616122493,-1.091947912226117,9.762866913876785,0.002760255783080827,-0.0020688416982425593,0.001090830782496456,-15.842336983104166,-2.1553094705331697,-22.375
1770155716.729268,-33.84252403362696,0.7176272864619002,-7.349291892449658,0.6129366800040442,-1.088599710424199,9.758562787452155,-0.0008966780877808504,-0.0006211925650999921,-0.002181661564992912,-15.842336983104166,-2.1553094705331697,-22.375
1770155716.741886,-33.84252403362696,0.7176272864619002,-7.349291892449658,0.6129366800040442,-1.088599710424199,9.758562787452155,-0.0008966780877808504,-0.0006211925650999921,-0.002181661564992912,-15.842336983104166,-2.1553094705331697,-22.375
1770155716.7546558,-33.84252403362696,0.7176272864619002,-7.349291892449658,0.6157720079528556,-1.089121247914885,9.759043551104124,0.0,0.0,0.002181661564992912,-16.554171228006872,-1.127792070299092,-22.375
1770155716.767867,-33.84252403362696,0.7176272864619002,-7.349291892449658,0.6149091586421033,-1.0913732573420172,9.75936349394403,-0.0008966780877808504,-0.0006211925650999921,0.001090830782496456,-16.554171228006872,-1.127792070299092,-22.375
1770155716.7799609,-33.84252403362696,0.7176272864619002,-7.349291892449658,0.6149091586421033,-1.0913732573420172,9.75936349394403,-0.0008966780877808504,-0.0006211925650999921,0.001090830782496456,-16.554171228006872,-1.127792070299092,-22.375
1770155716.7927735,-33.84252403362696,0.7176272864619002,-7.349291892449658,0.6143349420644558,-1.09287194445918,9.75957641232999,0.001172163610461709,0.002139063217980835,0.002181661564992912,-16.554171228006872,-1.127792070299092,-22.375
1770155716.8050027,-33.84252403362696,0.7176272864619002,-7.349291892449658,0.6084533505704551,-1.0976791681002913,9.759718107137392,-0.0012423851301999842,0.0017933561755617009,0.0,-16.554171228006872,-1.127792070299092,-22.375
1770155716.8186457,-33.84252403362696,0.7176272864619002,-7.349291892449658,0.6084533505704551,-1.0976791681002913,9.759718107137392,-0.0012423851301999842,0.0017933561755617009,0.0,-16.554171228006872,-1.127792070299092,-22.375
1770155716.8312516,-33.84252403362696,0.7176272864619002,-7.349291892449658,0.6026342850798436,-1.0981285933452465,9.759812403448883,0.0021390632179808344,-0.001172163610461709,0.001090830782496456,-16.637424842633134,-0.3491072266995391,-21.5625
1770155716.8439577,-33.84252403362696,0.7176272864619002,-7.349291892449658,0.5987617619990624,-1.0984276808253552,9.759875156590823,-0.002760255783080827,0.0020688416982425593,-0.002181661564992912,-16.637424842633134,-0.3491072266995391,-21.5625
1770155716.8561254,-33.84252403362696,0.7176272864619002,-7.349291892449658,0.5987617619990624,-1.0984276808253552,9.759875156590823,-0.002760255783080827,0.0020688416982425593,-0.002181661564992912,-16.637424842633134,-0.3491072266995391,-21.5625
1770155716.8687005,-33.84252403362696,0.7176272864619002,-7.349291892449658,0.5989343695357177,-1.0967217881493057,9.756571806398465,0.0008966780877808504,0.0006211925650999921,-0.001090830782496456,-16.637424842633134,-0.3491072266995391,-21.5625
1770155716.882484,-33.84252403362696,0.7176272864619002,-7.349291892449658,0.6037038983642432,-1.0964313319644265,9.75437346374629,0.00034570704241913364,-0.002414548740661693,0.001090830782496456,-17.170681668147317,-1.5548926172407158,-21.5625
1770155716.8982284,-33.84252403362696,0.7176272864619002,-7.349291892449658,0.6037038983642432,-1.0964313319644265,9.75437346374629,0.00034570704241913364,-0.002414548740661693,0.001090830782496456,-17.170681668147317,-1.5548926172407158,-21.5625
1770155716.910719,-33.84252403362696,0.7176272864619002,-7.349291892449658,0.6068779665204989,-1.0962380366179976,9.749565379561046,-0.0008966780877808504,-0.0006211925650999921,0.001090830782496456,-17.170681668147317,-1.5548926172407158,-21.5625
1770155716.923355,-33.84252403362696,0.7176272864619002,-7.349291892449658,0.6062405450338245,-1.0980143327772356,9.756400988367544,0.0012423851301999842,-0.0017933561755617009,0.0,-17.170681668147317,-1.5548926172407158,-21.5625
1770155716.9355657,-33.84252403362696,0.7176272864619002,-7.349291892449658,0.6062405450338245,-1.0980143327772356,9.756400988367544,0.0012423851301999842,-0.0017933561755617009,0.0,-17.170681668147317,-1.5548926172407158,-21.5625
1770155716.9478545,-33.84252403362696,0.7176272864619002,-7.349291892449658,0.6039114161018714,-1.0964467096406822,9.750914674547555,0.0002754855226808584,0.0015178706528808426,-0.001090830782496456,-16.305029242290924,-1.487423160381019,-22.375
1770155716.9613757,-33.84252403362696,0.7176272864619002,-7.349291892449658,0.6023614068157316,-1.0954034739548038,9.757298929108453,-0.0008966780877808504,-0.0006211925650999921,0.0,-16.305029242290924,-1.487423160381019,-22.375
1770155716.9741776,-33.84252403362696,0.7176272864619002,-7.349291892449658,0.6023614068157316,-1.0954034739548038,9.757298929108453,-0.0008966780877808504,-0.0006211925650999921,0.0,-16.305029242290924,-1.487423160381019,-22.375
1770155716.9866004,-33.84252403362696,0.7176272864619002,-7.349291892449658,0.6013298929505437,-1.0947092122595579,9.751512244079976,-0.0006211925650999921,0.0008966780877808504,-0.001090830782496456,-16.305029242290924,-1.487423160381019,-22.375
1770155716.9987154,-33.84252403362696,0.7176272864619002,-7.349291892449658,0.6013298929505437,-1.0947092122595579,9.751512244079976,-0.0006211925650999921,0.0008966780877808504,-0.001090830782496456,-16.305029242290924,-1.487423160381019,-22.375
1770155717.013217,-33.84252403362696,0.7176272864619002,-7.349291892449658,0.6080478208250578,-1.0931870531387091,9.757696604956989,0.0008966780877808504,0.0006211925650999921,0.0,-15.9967740222207,-1.273872886910209,-22.0
1770155717.025849,-33.84252403362696,0.7176272864619002,-7.349291892449658,0.6152682551693733,-1.09026914119438,9.758467116329484,-0.0008966780877808504,-0.0006211925650999921,0.001090830782496456,-15.9967740222207,-1.273872886910209,-22.0
1770155717.0382009,-33.84252403362696,0.7176272864619002,-7.349291892449658,0.6200733735679789,-1.0883273033906409,9.762324994748024,-0.0006211925650999921,0.0008966780877808504,-0.001090830782496456,-15.9967740222207,-1.273872886910209,-22.0
1770155717.0524554,-33.84252403362696,0.7176272864619002,-7.349291892449658,0.6200733735679789,-1.0883273033906409,9.762324994748024,-0.0006211925650999921,0.0008966780877808504,-0.001090830782496456,-15.9967740222207,-1.273872886910209,-22.0
1770155717.0651193,-33.84252403362696,0.7176272864619002,-7.349291892449658,0.6205213977975633,-1.088939964077038,9.764892369740236,0.0,0.0,0.001090830782496456,-16.080027636846964,-0.49518804331065525,-23.1875
1770155717.077448,-33.84252403362696,0.7176272864619002,-7.349291892449658,0.6205213977975633,-1.088939964077038,9.764892369740236,0.0,0.0,0.001090830782496456,-16.080027636846964,-0.49518804331065525,-23.1875
1770155717.0923748,-33.84252403362696,0.7176272864619002,-7.349291892449658,0.6180698245295952,-1.091252614973003,9.766600929118095,0.0002754855226808584,0.0015178706528808426,-0.001090830782496456,-16.080027636846964,-0.49518804331065525,-23.1875
1770155717.1056342,-33.84252403362696,0.7176272864619002,-7.349291892449658,0.6136886015176325,-1.0946965903633004,9.767737956298202,0.0006211925650999921,-0.0008966780877808504,0.0,-16.080027636846964,-0.49518804331065525,-23.1875
1770155717.1187286,-33.84252403362696,0.7176272864619002,-7.349291892449658,0.612677878597675,-1.0997382459018152,9.768494635185137,-0.0015178706528808424,0.0002754855226808584,0.0,-15.937660787866424,-0.7006915233574709,-22.75
1770155717.1352704,-33.84252403362696,0.7176272864619002,-7.349291892449658,0.612677878597675,-1.0997382459018152,9.768494635185137,-0.0015178706528808424,0.0002754855226808584,0.0,-15.937660787866424,-0.7006915233574709,-22.75
1770155717.1489995,-33.84252403362696,0.7176272864619002,-7.349291892449658,0.6101003217319222,-1.1003436829557165,9.768998196531735,-0.001172163610461709,-0.002139063217980835,0.001090830782496456,-15.937660787866424,-0.7006915233574709,-22.75
1770155717.1688323,-33.84252403362696,0.7176272864619002,-7.349291892449658,0.6092297827659224,-1.096091934110879,9.765988199275428,0.0008966780877808504,0.0006211925650999921,0.0,-15.937660787866424,-0.7006915233574709,-22.75
1770155717.1872876,-33.84252403362696,0.7176272864619002,-7.349291892449658,0.6092297827659224,-1.096091934110879,9.765988199275428,0.0008966780877808504,0.0006211925650999921,0.0,-15.937660787866424,-0.7006915233574709,-22.75
1770155717.204407,-33.84252403362696,0.7176272864619002,-7.349291892449658,0.6086504488086071,-1.0932624427497863,9.763985079725229,0.0,0.0,-0.001090830782496456,-16.554171228006872,-1.127792070299092,-22.0
1770155717.2183368,-33.84252403362696,0.7176272864619002,-7.349291892449658,0.6082649085315981,-1.0913794478564685,9.769342249455521,0.0015178706528808424,-0.0002754855226808584,0.003272492347489368,-16.554171228006872,-1.127792070299092,-22.0
1770155717.2426763,-33.84252403362696,0.7176272864619002,-7.349291892449658,0.6080083357840156,-1.0901263357893967,9.772907386067523,0.0015178706528808424,-0.0002754855226808584,0.0,-16.554171228006872,-1.127792070299092,-22.0
1770155717.2567325,-33.84252403362696,0.7176272864619002,-7.349291892449658,0.6080083357840156,-1.0901263357893967,9.772907386067523,0.0015178706528808424,-0.0002754855226808584,0.0,-16.554171228006872,-1.127792070299092,-22.0
1770155717.2856512,-33.84252403362696,0.7176272864619002,-7.349291892449658,0.6124922499276387,-1.0901372000419014,9.775279944657624,-0.0002754855226808584,-0.0015178706528808426,-0.001090830782496456,-16.305029242290924,-1.487423160381019,-22.375
1770155717.3005104,-33.84252403362696,0.7176272864619002,-7.349291892449658,0.615476244701617,-1.0901444300805818,9.773513744188802,0.0002754855226808584,0.0015178706528808426,-0.001090830782496456,-16.305029242290924,-1.487423160381019,-22.375
1770155717.3211343,-33.84252403362696,0.7176272864619002,-7.349291892449658,0.615476244701617,-1.0901444300805818,9.773513744188802,0.0002754855226808584,0.0015178706528808426,-0.001090830782496456,-16.305029242290924,-1.487423160381019,-22.375
1770155717.3405616,-33.84252403362696,0.7176272864619002,-7.349291892449658,0.6174620598902938,-1.0901492415905587,9.768993245799233,0.0006211925650999921,-0.0008966780877808504,0.002181661564992912,-16.305029242290924,-1.487423160381019,-22.375
1770155717.3560035,-33.84252403362696,0.7176272864619002,-7.349291892449658,0.6187835977153491,-1.0901524435967003,9.765984904618252,-0.0015178706528808424,0.0002754855226808584,0.0,-16.70798940896056,-2.2227789273928664,-22.375
1770155717.3693435,-33.84252403362696,0.7176272864619002,-7.349291892449658,0.6196630663753785,-1.0901545744960186,9.763982887167682,0.0002754855226808584,0.0015178706528808426,0.0,-16.70798940896056,-2.2227789273928664,-22.375
1770155717.3872323,-33.84252403362696,0.7176272864619002,-7.349291892449658,0.6196630663753785,-1.0901545744960186,9.763982887167682,0.0002754855226808584,0.0015178706528808426,0.0,-16.70798940896056,-2.2227789273928664,-22.375
1770155717.3997943,-33.84252403362696,0.7176272864619002,-7.349291892449658,0.6240582070503914,-1.0956554493617072,9.762650566918328,-0.002760255783080827,0.0020688416982425593,0.001090830782496456,-16.70798940896056,-2.2227789273928664,-22.375
1770155717.4124155,-33.84252403362696,0.7176272864619002,-7.349291892449658,0.6214836672966783,-1.1031260842420962,9.761763922675375,-0.0008966780877808504,-0.0006211925650999921,0.001090830782496456,-16.45111005890204,-2.0448203661671904,-21.1875
1770155717.4269373,-33.84252403362696,0.7176272864619002,-7.349291892449658,0.6214836672966783,-1.1031260842420962,9.761763922675375,-0.0008966780877808504,-0.0006211925650999921,0.001090830782496456,-16.45111005890204,-2.0448203661671904,-21.1875
1770155717.4395676,-33.84252403362696,0.7176272864619002,-7.349291892449658,0.6197703398500756,-1.1080977083025354,9.761173870836155,0.0008966780877808504,0.0006211925650999921,-0.001090830782496456,-16.45111005890204,-2.0448203661671904,-21.1875
1770155717.4525049,-33.84252403362696,0.7176272864619002,-7.349291892449658,0.6129153434143754,-1.1031570834140842,9.764126309635783,-0.0006211925650999921,0.0008966780877808504,-0.001090830782496456,-16.45111005890204,-2.0448203661671904,-21.1875
1770155717.4653568,-33.84252403362696,0.7176272864619002,-7.349291892449658,0.6129153434143754,-1.1031570834140842,9.764126309635783,-0.0006211925650999921,0.0008966780877808504,-0.001090830782496456,-16.45111005890204,-2.0448203661671904,-21.1875
1770155717.478031,-33.84252403362696,0.7176272864619002,-7.349291892449658,0.6083534198617446,-1.0998691527412163,9.772781348090673,0.0015178706528808424,-0.0002754855226808584,-0.001090830782496456,-16.245916007936646,-0.9142417968282819,-22.375
1770155717.4917855,-33.84252403362696,0.7176272864619002,-7.349291892449658,0.6080672390854918,-1.095776139553979,9.771850956084648,-0.003035741305761685,0.0005509710453617168,-0.001090830782496456,-16.245916007936646,-0.9142417968282819,-22.375
1770155717.5044162,-33.84252403362696,0.7176272864619002,-7.349291892449658,0.6080672390854918,-1.095776139553979,9.771850956084648,-0.003035741305761685,0.0005509710453617168,-0.001090830782496456,-16.245916007936646,-0.9142417968282819,-22.375
1770155717.51674,-33.84252403362696,0.7176272864619002,-7.349291892449658,0.6078767889757444,-1.0930522849998254,9.771231790597799,0.0015178706528808424,-0.0002754855226808584,0.0,-16.245916007936646,-0.9142417968282819,-22.375
1770155717.5288503,-33.84252403362696,0.7176272864619002,-7.349291892449658,0.6078767889757444,-1.0930522849998254,9.771231790597799,0.0015178706528808424,-0.0002754855226808584,0.0,-16.245916007936646,-0.9142417968282819,-22.375
1770155717.5412357,-33.84252403362696,0.7176272864619002,-7.349291892449658,0.6077500465551745,-1.0912395902214855,9.770819742882832,-0.0009668996075191258,0.0033112268284425437,0.001090830782496456,-17.05616916706934,-1.1714305759682242,-21.5625
1770155717.5540056,-33.84252403362696,0.7176272864619002,-7.349291892449658,0.602166244114095,-1.0938431262016994,9.760510194609438,0.0,0.0,0.0,-17.05616916706934,-1.1714305759682242,-21.5625
1770155717.566159,-33.84252403362696,0.7176272864619002,-7.349291892449658,0.602166244114095,-1.0938431262016994,9.760510194609438,0.0,0.0,0.0,-17.05616916706934,-1.1714305759682242,-21.5625
1770155717.5804877,-33.84252403362696,0.7176272864619002,-7.349291892449658,0.5984502859647169,-1.0955757503131294,9.760339528813333,-0.0002754855226808584,-0.0015178706528808426,-0.001090830782496456,-17.05616916706934,-1.1714305759682242,-21.5625
1770155717.5934305,-33.84252403362696,0.7176272864619002,-7.349291892449658,0.5987270857142761,-1.0948238602515705,9.760225952632487,0.0,0.0,0.0,-15.463517196706519,-0.06808749636903325,-23.1875
1770155717.6056993,-33.84252403362696,0.7176272864619002,-7.349291892449658,0.5987270857142761,-1.0948238602515705,9.760225952632487,0.0,0.0,0.0,-15.463517196706519,-0.06808749636903325,-23.1875
1770155717.6179297,-33.84252403362696,0.7176272864619002,-7.349291892449658,0.6008162249085878,-1.0970732142027635,9.763495480660183,0.0008966780877808504,0.0006211925650999921,-0.001090830782496456,-15.463517196706519,-0.06808749636903325,-23.1875
1770155717.6301687,-33.84252403362696,0.7176272864619002,-7.349291892449658,0.6022065237051883,-1.0985701341303522,9.765671315039594,-0.003035741305761685,0.0005509710453617168,-0.002181661564992912,-15.463517196706519,-0.06808749636903325,-23.1875
1770155717.6448812,-33.84252403362696,0.7176272864619002,-7.349291892449658,0.6022065237051883,-1.0985701341303522,9.765671315039594,-0.003035741305761685,0.0005509710453617168,-0.002181661564992912,-15.463517196706519,-0.06808749636903325,-23.1875
1770155717.6589193,-33.84252403362696,0.7176272864619002,-7.349291892449658,0.6086312087996667,-1.0957564535143998,9.75708397339147,0.0,0.0,-0.001090830782496456,-16.554171228006872,-1.127792070299092,-21.5625
1770155717.6711557,-33.84252403362696,0.7176272864619002,-7.349291892449658,0.612906764961607,-1.093883980495355,9.751369193451536,-0.0021390632179808344,0.001172163610461709,-0.001090830782496456,-16.554171228006872,-1.127792070299092,-21.5625
1770155717.6855516,-33.84252403362696,0.7176272864619002,-7.349291892449658,0.612906764961607,-1.093883980495355,9.751369193451536,-0.0021390632179808344,0.001172163610461709,-0.001090830782496456,-16.554171228006872,-1.127792070299092,-21.5625
1770155717.6982055,-33.84252403362696,0.7176272864619002,-7.349291892449658,0.6130023714382887,-1.094542802671111,9.757601406361744,0.0017933561755617009,0.0012423851301999842,0.001090830782496456,-16.554171228006872,-1.127792070299092,-21.5625
1770155717.710436,-33.84252403362696,0.7176272864619002,-7.349291892449658,0.6130023714382887,-1.094542802671111,9.757601406361744,0.0017933561755617009,0.0012423851301999842,0.001090830782496456,-16.554171228006872,-1.127792070299092,-21.5625
1770155717.725188,-33.84252403362696,0.7176272864619002,-7.349291892449658,0.6130659964805261,-1.0949812414695506,9.761748874435106,-0.003035741305761685,0.0005509710453617168,0.001090830782496456,-16.245916007936646,-0.9142417968282819,-22.375
1770155717.7377143,-33.84252403362696,0.7176272864619002,-7.349291892449658,0.6131083382353967,-1.0952730175922298,9.764508968107675,-0.0006211925650999921,0.0008966780877808504,0.0,-16.245916007936646,-0.9142417968282819,-22.375
1770155717.749869,-33.84252403362696,0.7176272864619002,-7.349291892449658,0.6131083382353967,-1.0952730175922298,9.764508968107675,-0.0006211925650999921,0.0008966780877808504,0.0,-16.245916007936646,-0.9142417968282819,-22.375
1770155717.764273,-33.84252403362696,0.7176272864619002,-7.349291892449658,0.6131365162002747,-1.09546719134252,9.763000667907184,-0.0002754855226808584,-0.0015178706528808426,-0.001090830782496456,-16.245916007936646,-0.9142417968282819,-22.375
1770155717.7768128,-33.84252403362696,0.7176272864619002,-7.349291892449658,0.6159049967091303,-1.0936914797512394,9.765342022679894,0.0012423851301999842,-0.0017933561755617009,0.0,-16.388282856917186,-0.7087383167814663,-21.5625
1770155717.78898,-33.84252403362696,0.7176272864619002,-7.349291892449658,0.6159049967091303,-1.0936914797512394,9.765342022679894,0.0012423851301999842,-0.0017933561755617009,0.0,-16.388282856917186,-0.7087383167814663,-21.5625
1770155717.8013816,-33.84252403362696,0.7176272864619002,-7.349291892449658,0.6177473895618201,-1.0925097635232401,9.763555056419166,-0.0017933561755617009,-0.0012423851301999842,0.0,-16.388282856917186,-0.7087383167814663,-21.5625
1770155717.8148522,-33.84252403362696,0.7176272864619002,-7.349291892449658,0.6143188209833748,-1.0908785482391798,9.765710962041693,0.0,0.0,0.002181661564992912,-16.388282856917186,-0.7087383167814663,-21.5625
1770155717.8278112,-33.84252403362696,0.7176272864619002,-7.349291892449658,0.6143188209833748,-1.0908785482391798,9.765710962041693,0.0,0.0,0.002181661564992912,-16.388282856917186,-0.7087383167814663,-21.5625
1770155717.8404016,-33.84252403362696,0.7176272864619002,-7.349291892449658,0.609287418506042,-1.0916979247425425,9.76714569315044,0.0012423851301999842,-0.0017933561755617009,0.0,-17.62130373719808,-1.5629394106647103,-22.375
1770155717.854132,-33.84252403362696,0.7176272864619002,-7.349291892449658,0.6069992120798993,-1.0996475994815267,9.768100490676314,-0.0021390632179808344,0.001172163610461709,0.0,-17.62130373719808,-1.5629394106647103,-22.375
1770155717.8664057,-33.84252403362696,0.7176272864619002,-7.349291892449658,0.6069992120798993,-1.0996475994815267,9.768100490676314,-0.0021390632179808344,0.001172163610461709,0.0,-17.62130373719808,-1.5629394106647103,-22.375
1770155717.878846,-33.84252403362696,0.7176272864619002,-7.349291892449658,0.6054764362642417,-1.1049380192166351,9.768735897763996,0.0,0.0,0.0,-17.62130373719808,-1.5629394106647103,-22.375
1770155717.890937,-33.84252403362696,0.7176272864619002,-7.349291892449658,0.6072127743574403,-1.1065538023994534,9.769158754082886,0.0012423851301999842,-0.0017933561755617009,0.002181661564992912,-16.696538076987412,-0.9222885902522764,-21.5625
1770155717.9054484,-33.84252403362696,0.7176272864619002,-7.349291892449658,0.6072127743574403,-1.1065538023994534,9.769158754082886,0.0012423851301999842,-0.0017933561755617009,0.002181661564992912,-16.696538076987412,-0.9222885902522764,-21.5625
1770155717.9179208,-33.84252403362696,0.7176272864619002,-7.349291892449658,0.6092130842972584,-1.102974427617104,9.769440160239492,0.0015178706528808424,-0.0002754855226808584,0.0,-16.696538076987412,-0.9222885902522764,-21.5625
1770155717.9302166,-33.84252403362696,0.7176272864619002,-7.349291892449658,0.6092130842972584,-1.102974427617104,9.769440160239492,0.0015178706528808424,-0.0002754855226808584,0.0,-16.696538076987412,-0.9222885902522764,-21.5625
1770155717.9448183,-33.84252403362696,0.7176272864619002,-7.349291892449658,0.6160437249932771,-1.0967825295776152,9.769627432893202,-0.0008966780877808504,-0.0006211925650999921,-0.002181661564992912,-16.696538076987412,-0.9222885902522764,-21.5625
1770155717.9572608,-33.84252403362696,0.7176272864619002,-7.349291892449658,0.6150899832972254,-1.0964717547064402,9.766406949044955,0.0015178706528808424,-0.0002754855226808584,0.001090830782496456,-16.945680062703357,-0.5626575001703492,-22.375
1770155717.969446,-33.84252403362696,0.7176272864619002,-7.349291892449658,0.6150899832972254,-1.0964717547064402,9.766406949044955,0.0015178706528808424,-0.0002754855226808584,0.001090830782496456,-16.945680062703357,-0.5626575001703492,-22.375
1770155717.9822118,-33.84252403362696,0.7176272864619002,-7.349291892449658,0.611705550464498,-1.098169869554292,9.770953976433745,-0.001172163610461709,-0.002139063217980835,0.001090830782496456,-16.945680062703357,-0.5626575001703492,-22.375
1770155717.9943814,-33.84252403362696,0.7176272864619002,-7.349291892449658,0.6067035198329119,-1.1012048780693875,9.77397997236736,0.0,0.0,0.0,-16.945680062703357,-0.5626575001703492,-22.375
1770155718.0066295,-33.84252403362696,0.7176272864619002,-7.349291892449658,0.6067035198329119,-1.1012048780693875,9.77397997236736,0.0,0.0,0.0,-16.945680062703357,-0.5626575001703492,-22.375
1770155718.0189145,-33.84252403362696,0.7176272864619002,-7.349291892449658,0.6052796563769706,-1.1059743707209149,9.775993738858594,-0.0005509710453617168,-0.0030357413057616853,-0.001090830782496456,-16.080027636846964,-0.49518804331065525,-21.1875
1770155718.031095,-33.84252403362696,0.7176272864619002,-7.349291892449658,0.6052796563769706,-1.1059743707209149,9.775993738858594,-0.0005509710453617168,-0.0030357413057616853,-0.001090830782496456,-16.080027636846964,-0.49518804331065525,-21.1875
1770155718.0458791,-33.84252403362696,0.7176272864619002,-7.349291892449658,0.6070818195406366,-1.1072434827487467,9.770643654548625,-0.0017933561755617009,-0.0012423851301999842,-0.001090830782496456,-16.080027636846964,-0.49518804331065525,-21.1875
1770155718.0582333,-33.84252403362696,0.7176272864619002,-7.349291892449658,0.6101860710476106,-1.1108377910143563,9.76373812149738,0.0,0.0,0.0,-16.080027636846964,-0.49518804331065525,-21.1875
1770155718.0704603,-33.84252403362696,0.7176272864619002,-7.349291892449658,0.6103469836957044,-1.1104800346260675,9.759142566391633,-0.0012423851301999842,0.0017933561755617009,-0.001090830782496456,-15.9967740222207,-1.273872886910209,-22.0
1770155718.0882134,-33.84252403362696,0.7176272864619002,-7.349291892449658,0.6103469836957044,-1.1104800346260675,9.759142566391633,-0.0012423851301999842,0.0017933561755617009,-0.001090830782496456,-15.9967740222207,-1.273872886910209,-22.0
1770155718.1006205,-33.84252403362696,0.7176272864619002,-7.349291892449658,0.6104540692654988,-1.110241951746062,9.756084275804474,-0.0012423851301999842,0.0017933561755617009,0.0,-15.9967740222207,-1.273872886910209,-22.0
1770155718.113832,-33.84252403362696,0.7176272864619002,-7.349291892449658,0.6113701298509348,-1.1054288498079443,9.754049017582064,-0.0006211925650999921,0.0008966780877808504,0.002181661564992912,-15.9967740222207,-1.273872886910209,-22.0
1770155718.1260715,-33.84252403362696,0.7176272864619002,-7.349291892449658,0.6113701298509348,-1.1054288498079443,9.754049017582064,-0.0006211925650999921,0.0008966780877808504,0.002181661564992912,-15.9967740222207,-1.273872886910209,-22.0
1770155718.139326,-33.84252403362696,0.7176272864619002,-7.349291892449658,0.611979757937475,-1.1022257842339986,9.752694575970374,-0.0006211925650999921,0.0008966780877808504,-0.001090830782496456,-17.47893688821754,-1.768442890711526,-22.75
1770155718.1550722,-33.84252403362696,0.7176272864619002,-7.349291892449658,0.611979757937475,-1.1022257842339986,9.752694575970374,-0.0006211925650999921,0.0008966780877808504,-0.001090830782496456,-17.47893688821754,-1.768442890711526,-22.75
1770155718.1771598,-33.84252403362696,0.7176272864619002,-7.349291892449658,0.6123854586190759,-1.100094179875125,9.751793210207898,-0.0002754855226808584,-0.0015178706528808426,0.0,-17.47893688821754,-1.768442890711526,-22.75
1770155718.1908903,-33.84252403362696,0.7176272864619002,-7.349291892449658,0.6154051762787055,-1.0967706889328392,9.751193361361885,0.0,0.0,0.0,-17.47893688821754,-1.768442890711526,-22.75
1770155718.209574,-33.84252403362696,0.7176272864619002,-7.349291892449658,0.6201644930367304,-1.0926540107835387,9.747449056948295,-0.004278126435961669,0.002344327220923418,-0.002181661564992912,-16.9138023180888,-1.3769340560150398,-21.1875
1770155718.2238266,-33.84252403362696,0.7176272864619002,-7.349291892449658,0.6201644930367304,-1.0926540107835387,9.747449056948295,-0.004278126435961669,0.002344327220923418,-0.002181661564992912,-16.9138023180888,-1.3769340560150398,-21.1875
1770155718.2389433,-33.84252403362696,0.7176272864619002,-7.349291892449658,0.6252366972271801,-1.092664135849485,9.74830237589499,-0.0002754855226808584,-0.0015178706528808426,0.003272492347489368,-16.9138023180888,-1.3769340560150398,-21.1875
1770155718.2532861,-33.84252403362696,0.7176272864619002,-7.349291892449658,0.6203630072916974,-1.0983856701268757,9.755560473536459,-0.0015178706528808424,0.0002754855226808584,0.0,-16.9138023180888,-1.3769340560150398,-21.1875
1770155718.2659912,-33.84252403362696,0.7176272864619002,-7.349291892449658,0.6203630072916974,-1.0983856701268757,9.755560473536459,-0.0015178706528808424,0.0002754855226808584,0.0,-16.9138023180888,-1.3769340560150398,-21.1875
1770155718.278695,-33.84252403362696,0.7176272864619002,-7.349291892449658,0.6152146890292814,-1.0994435588867557,9.760390656438593,-0.003035741305761685,0.0005509710453617168,0.0,-17.305311152785283,-0.811799485886297,-22.0
1770155718.2915187,-33.84252403362696,0.7176272864619002,-7.349291892449658,0.6098836086830911,-1.097397843651066,9.763605089203285,0.0021390632179808344,-0.001172163610461709,-0.001090830782496456,-17.305311152785283,-0.811799485886297,-22.0
1770155718.3064868,-33.84252403362696,0.7176272864619002,-7.349291892449658,0.6098836086830911,-1.097397843651066,9.763605089203285,0.0021390632179808344,-0.001172163610461709,-0.001090830782496456,-17.305311152785283,-0.811799485886297,-22.0
1770155718.3193676,-33.84252403362696,0.7176272864619002,-7.349291892449658,0.6118352910407666,-1.0922265789077794,9.76574425830062,0.0008966780877808504,0.0006211925650999921,-0.002181661564992912,-17.305311152785283,-0.811799485886297,-22.0
1770155718.3316495,-33.84252403362696,0.7176272864619002,-7.349291892449658,0.6118352910407666,-1.0922265789077794,9.76574425830062,0.0008966780877808504,0.0006211925650999921,-0.002181661564992912,-17.305311152785283,-0.811799485886297,-22.0
1770155718.346365,-33.84252403362696,0.7176272864619002,-7.349291892449658,0.6158838422360772,-1.0868802279348984,9.767167851438812,0.0,0.0,0.0,-16.637424842633134,-0.3491072266995391,-21.5625
1770155718.359813,-33.84252403362696,0.7176272864619002,-7.349291892449658,0.6185781078312763,-1.0833222910850997,9.7681152367697,-0.0008966780877808504,-0.0006211925650999921,0.002181661564992912,-16.637424842633134,-0.3491072266995391,-21.5625
1770155718.3734481,-33.84252403362696,0.7176272864619002,-7.349291892449658,0.6195263151530005,-1.0856091842973512,9.76874571112442,-0.0008966780877808504,-0.0006211925650999921,-0.001090830782496456,-16.637424842633134,-0.3491072266995391,-21.5625
1770155718.3860416,-33.84252403362696,0.7176272864619002,-7.349291892449658,0.6195263151530005,-1.0856091842973512,9.76874571112442,-0.0008966780877808504,-0.0006211925650999921,-0.001090830782496456,-16.637424842633134,-0.3491072266995391,-21.5625
1770155718.3983426,-33.84252403362696,0.7176272864619002,-7.349291892449658,0.6174076081454402,-1.0890360182368695,9.769165284764627,-0.0008966780877808504,-0.0006211925650999921,0.0,-15.431639452091957,-0.882364052213722,-22.75
1770155718.4104652,-33.84252403362696,0.7176272864619002,-7.349291892449658,0.6174076081454402,-1.0890360182368695,9.769165284764627,-0.0008966780877808504,-0.0006211925650999921,0.0,-15.431639452091957,-0.882364052213722,-22.75
1770155718.4233615,-33.84252403362696,0.7176272864619002,-7.349291892449658,0.615997632299417,-1.0913165379433758,9.769444506335239,0.0,0.0,0.002181661564992912,-15.431639452091957,-0.882364052213722,-22.75
1770155718.435641,-33.84252403362696,0.7176272864619002,-7.349291892449658,0.6123095807363527,-1.094739130386017,9.77632054858601,0.00034570704241913364,-0.002414548740661693,0.001090830782496456,-15.431639452091957,-0.882364052213722,-22.75
1770155718.4477947,-33.84252403362696,0.7176272864619002,-7.349291892449658,0.6123095807363527,-1.094739130386017,9.77632054858601,0.00034570704241913364,-0.002414548740661693,0.001090830782496456,-15.431639452091957,-0.882364052213722,-22.75
1770155718.4603631,-33.84252403362696,0.7176272864619002,-7.349291892449658,0.6126049520073668,-1.0951118953706962,9.780896477893474,0.0006211925650999921,-0.0008966780877808504,0.001090830782496456,-17.62130373719808,-1.5629394106647103,-22.375
1770155718.473041,-33.84252403362696,0.7176272864619002,-7.349291892449658,0.6155512466767112,-1.0934550342509066,9.773906372609154,-0.0017933561755617009,-0.0012423851301999842,0.0,-17.62130373719808,-1.5629394106647103,-22.375
1770155718.4869723,-33.84252403362696,0.7176272864619002,-7.349291892449658,0.6155512466767112,-1.0934550342509066,9.773906372609154,-0.0017933561755617009,-0.0012423851301999842,0.0,-17.62130373719808,-1.5629394106647103,-22.375
1770155718.4992127,-33.84252403362696,0.7176272864619002,-7.349291892449658,0.6175119728668921,-1.0923524116840382,9.76925453562703,0.002760255783080827,-0.0020688416982425593,-0.001090830782496456,-17.62130373719808,-1.5629394106647103,-22.375
1770155718.51129,-33.84252403362696,0.7176272864619002,-7.349291892449658,0.6175119728668921,-1.0923524116840382,9.76925453562703,0.002760255783080827,-0.0020688416982425593,-0.001090830782496456,-17.62130373719808,-1.5629394106647103,-22.375
1770155718.5242581,-33.84252403362696,0.7176272864619002,-7.349291892449658,0.6133173574677149,-1.0954284927889602,9.769503901787171,0.00034570704241913364,-0.002414548740661693,0.001090830782496456,-17.562190502843805,-0.989758047111973,-22.375
1770155718.5363786,-33.84252403362696,0.7176272864619002,-7.349291892449658,0.6124308198295226,-1.100225318790206,9.769669852181142,-0.0002754855226808584,-0.0015178706528808426,0.002181661564992912,-17.562190502843805,-0.989758047111973,-22.375
1770155718.5485616,-33.84252403362696,0.7176272864619002,-7.349291892449658,0.6124308198295226,-1.100225318790206,9.769669852181142,-0.0002754855226808584,-0.0015178706528808426,0.002181661564992912,-17.562190502843805,-0.989758047111973,-22.375
1770155718.561074,-33.84252403362696,0.7176272864619002,-7.349291892449658,0.6099359068815441,-1.10066782452198,9.769780290314543,-0.0014476491331425676,-0.0036569338708616773,0.001090830782496456,-17.562190502843805,-0.989758047111973,-22.375
1770155718.5752656,-33.84252403362696,0.7176272864619002,-7.349291892449658,0.6063706381316322,-1.0982125787553647,9.769853785658647,0.00034570704241913364,-0.002414548740661693,-0.001090830782496456,-17.05616916706934,-1.1714305759682242,-22.75
1770155718.5875335,-33.84252403362696,0.7176272864619002,-7.349291892449658,0.6063706381316322,-1.0982125787553647,9.769853785658647,0.00034570704241913364,-0.002414548740661693,-0.001090830782496456,-17.05616916706934,-1.1714305759682242,-22.75
1770155718.5999088,-33.84252403362696,0.7176272864619002,-7.349291892449658,0.6039979916052274,-1.0965786401245745,9.76990269598915,0.0006211925650999921,-0.0008966780877808504,-0.001090830782496456,-17.05616916706934,-1.1714305759682242,-22.75
1770155718.612446,-33.84252403362696,0.7176272864619002,-7.349291892449658,0.6039979916052274,-1.0965786401245745,9.76990269598915,0.0006211925650999921,-0.0008966780877808504,-0.001090830782496456,-17.05616916706934,-1.1714305759682242,-22.75
1770155718.6273074,-33.84252403362696,0.7176272864619002,-7.349291892449658,0.607918478622099,-1.0916814081120023,9.769935245267737,0.0,0.0,0.001090830782496456,-17.05616916706934,-1.1714305759682242,-22.75
1770155718.6396523,-33.84252403362696,0.7176272864619002,-7.349291892449658,0.6124324509901535,-1.0911720833012994,9.766611794741717,0.0012423851301999842,-0.0017933561755617009,-0.001090830782496456,-17.229794902501595,-2.1280739807934532,-21.1875
1770155718.6518567,-33.84252403362696,0.7176272864619002,-7.349291892449658,0.6124324509901535,-1.0911720833012994,9.766611794741717,0.0012423851301999842,-0.0017933561755617009,-0.001090830782496456,-17.229794902501595,-2.1280739807934532,-21.1875
1770155718.6665664,-33.84252403362696,0.7176272864619002,-7.349291892449658,0.6154364491767186,-1.0908331333293078,9.764400075542026,0.0008966780877808504,0.0006211925650999921,0.0,-17.229794902501595,-2.1280739807934532,-21.1875
1770155718.679477,-33.84252403362696,0.7176272864619002,-7.349291892449658,0.6119361196370232,-1.0944174300153382,9.766273312828472,-0.0005509710453617168,-0.0030357413057616853,0.0,-17.229794902501595,-2.1280739807934532,-21.1875
1770155718.691711,-33.84252403362696,0.7176272864619002,-7.349291892449658,0.6119361196370232,-1.0944174300153382,9.766273312828472,-0.0005509710453617168,-0.0030357413057616853,0.0,-17.229794902501595,-2.1280739807934532,-21.1875
1770155718.7047188,-33.84252403362696,0.7176272864619002,-7.349291892449658,0.6077017573765631,-1.0940530110326763,9.767519931317171,0.002760255783080827,-0.0020688416982425593,0.002181661564992912,-16.080027636846964,-0.49518804331065525,-22.375
1770155718.717891,-33.84252403362696,0.7176272864619002,-7.349291892449658,0.6048838365931525,-1.0938104942705413,9.768349541995759,0.0002754855226808584,0.0015178706528808426,-0.002181661564992912,-16.080027636846964,-0.49518804331065525,-22.375
1770155718.730407,-33.84252403362696,0.7176272864619002,-7.349291892449658,0.6048838365931525,-1.0938104942705413,9.768349541995759,0.0002754855226808584,0.0015178706528808426,-0.002181661564992912,-16.080027636846964,-0.49518804331065525,-22.375
1770155718.7433445,-33.84252403362696,0.7176272864619002,-7.349291892449658,0.6085079985660263,-1.0898392379683586,9.775591862049641,-0.0008966780877808504,-0.0006211925650999921,-0.002181661564992912,-16.080027636846964,-0.49518804331065525,-22.375
1770155718.7554762,-33.84252403362696,0.7176272864619002,-7.349291892449658,0.6128247699274678,-1.0899461396490933,9.780411545143483,0.0006211925650999921,-0.0008966780877808504,0.0,-16.66466033237285,-1.7365651460969669,-22.375
1770155718.769624,-33.84252403362696,0.7176272864619002,-7.349291892449658,0.6128247699274678,-1.0899461396490933,9.780411545143483,0.0006211925650999921,-0.0008966780877808504,0.0,-16.66466033237285,-1.7365651460969669,-22.375
1770155718.7824204,-33.84252403362696,0.7176272864619002,-7.349291892449658,0.6156975330470115,-1.0900172815234523,9.776928766988409,-0.00034570704241913364,0.002414548740661693,0.0,-16.66466033237285,-1.7365651460969669,-22.375
1770155718.7953608,-33.84252403362696,0.7176272864619002,-7.349291892449658,0.617609324812201,-1.0900646256461313,9.774611017031386,-0.0008966780877808504,-0.0006211925650999921,0.002181661564992912,-16.66466033237285,-1.7365651460969669,-22.375
1770155718.8081567,-33.84252403362696,0.7176272864619002,-7.349291892449658,0.617609324812201,-1.0900646256461313,9.774611017031386,-0.0008966780877808504,-0.0006211925650999921,0.002181661564992912,-16.66466033237285,-1.7365651460969669,-22.375
1770155718.8232532,-33.84252403362696,0.7176272864619002,-7.349291892449658,0.6180368045408594,-1.0947507930719398,9.773068580325953,-0.003381448348180819,0.0029655197860234098,-0.001090830782496456,-15.680781437807903,-0.5227329621317949,-21.5625
1770155718.836951,-33.84252403362696,0.7176272864619002,-7.349291892449658,0.6229759479660538,-1.098714181480857,9.772042105928634,0.0002754855226808584,0.0015178706528808426,0.001090830782496456,-15.680781437807903,-0.5227329621317949,-21.5625
1770155718.8491356,-33.84252403362696,0.7176272864619002,-7.349291892449658,0.6229759479660538,-1.098714181480857,9.772042105928634,0.0002754855226808584,0.0015178706528808426,0.001090830782496456,-15.680781437807903,-0.5227329621317949,-21.5625
1770155718.861405,-33.84252403362696,0.7176272864619002,-7.349291892449658,0.6188585039126417,-1.1024119079111159,9.774704110391006,-0.002414548740661693,-0.0003457070424191337,0.001090830782496456,-15.680781437807903,-0.5227329621317949,-21.5625
1770155718.875745,-33.84252403362696,0.7176272864619002,-7.349291892449658,0.6169631872249218,-1.1002180431031086,9.776475644624178,0.0015178706528808424,-0.0002754855226808584,0.001090830782496456,-16.945680062703357,-0.5626575001703492,-21.5625
1770155718.887947,-33.84252403362696,0.7176272864619002,-7.349291892449658,0.6169631872249218,-1.1002180431031086,9.776475644624178,0.0015178706528808424,-0.0002754855226808584,0.001090830782496456,-16.945680062703357,-0.5626575001703492,-21.5625
1770155718.900228,-33.84252403362696,0.7176272864619002,-7.349291892449658,0.613796943088283,-1.0960083221924575,9.777654580867019,-0.0008966780877808504,-0.0006211925650999921,-0.001090830782496456,-16.945680062703357,-0.5626575001703492,-21.5625
1770155718.912897,-33.84252403362696,0.7176272864619002,-7.349291892449658,0.6116898429846144,-1.0932067999520831,9.778439149767049,0.0006211925650999921,-0.0008966780877808504,-0.001090830782496456,-16.945680062703357,-0.5626575001703492,-21.5625
1770155718.927315,-33.84252403362696,0.7176272864619002,-7.349291892449658,0.6116898429846144,-1.0932067999520831,9.778439149767049,0.0006211925650999921,-0.0008966780877808504,-0.001090830782496456,-16.945680062703357,-0.5626575001703492,-21.5625
1770155718.939657,-33.84252403362696,0.7176272864619002,-7.349291892449658,0.6149422518445072,-1.09218721453113,9.77896127160581,-0.003035741305761685,0.0005509710453617168,-0.003272492347489368,-17.735816238276062,-1.946401451937202,-20.75
1770155718.9517646,-33.84252403362696,0.7176272864619002,-7.349291892449658,0.6149422518445072,-1.09218721453113,9.77896127160581,-0.003035741305761685,0.0005509710453617168,-0.003272492347489368,-17.735816238276062,-1.946401451937202,-20.75
1770155718.9645934,-33.84252403362696,0.7176272864619002,-7.349291892449658,0.6116072368329825,-1.0953185559290728,9.779308737857024,-0.00034570704241913364,0.002414548740661693,0.001090830782496456,-17.735816238276062,-1.946401451937202,-20.75
1770155718.976669,-33.84252403362696,0.7176272864619002,-7.349291892449658,0.6085430252624094,-1.1020570890910621,9.776194861058434,-0.0021390632179808344,0.001172163610461709,0.001090830782496456,-17.735816238276062,-1.946401451937202,-20.75
1770155718.9888134,-33.84252403362696,0.7176272864619002,-7.349291892449658,0.6045988946386432,-1.1037917792480207,9.774122610833254,-0.0015178706528808424,0.0002754855226808584,-0.001090830782496456,-17.735816238276062,-1.946401451937202,-20.75
1770155719.0031824,-33.84252403362696,0.7176272864619002,-7.349291892449658,0.6045988946386432,-1.1037917792480207,9.774122610833254,-0.0015178706528808424,0.0002754855226808584,-0.001090830782496456,-17.735816238276062,-1.946401451937202,-20.75
1770155719.0155609,-33.84252403362696,0.7176272864619002,-7.349291892449658,0.6047238481553507,-1.1030412641166818,9.77274355145695,-0.0008966780877808504,-0.0006211925650999921,-0.001090830782496456,-15.688518802150478,-1.060322613439398,-22.75
1770155719.0276828,-33.84252403362696,0.7176272864619002,-7.349291892449658,0.6047238481553507,-1.1030412641166818,9.77274355145695,-0.0008966780877808504,-0.0006211925650999921,-0.001090830782496456,-15.688518802150478,-1.060322613439398,-22.75
1770155719.0399864,-33.84252403362696,0.7176272864619002,-7.349291892449658,0.6048070033248972,-1.1025418046805793,9.771825802847122,-0.0015178706528808424,0.0002754855226808584,-0.001090830782496456,-15.688518802150478,-1.060322613439398,-22.75
1770155719.0526125,-33.84252403362696,0.7176272864619002,-7.349291892449658,0.6103617989373222,-1.0983995558991084,9.764524827984566,0.0006211925650999921,-0.0008966780877808504,0.002181661564992912,-15.688518802150478,-1.060322613439398,-22.75
1770155719.0647275,-33.84252403362696,0.7176272864619002,-7.349291892449658,0.6103617989373222,-1.0983995558991084,9.764524827984566,0.0006211925650999921,-0.0008966780877808504,0.002181661564992912,-15.688518802150478,-1.060322613439398,-22.75
1770155719.0772538,-33.84252403362696,0.7176272864619002,-7.349291892449658,0.6140584533662583,-1.0956429356069906,9.75966611077077,0.0,0.0,0.001090830782496456,-17.170681668147317,-1.5548926172407158,-21.5625
1770155719.0895455,-33.84252403362696,0.7176272864619002,-7.349291892449658,0.6137688072063817,-1.0957133676490884,9.759777800447734,-0.002414548740661693,-0.0003457070424191337,0.0,-17.170681668147317,-1.5548926172407158,-21.5625
1770155719.10167,-33.84252403362696,0.7176272864619002,-7.349291892449658,0.6137688072063817,-1.0957133676490884,9.759777800447734,-0.002414548740661693,-0.0003457070424191337,0.0,-17.170681668147317,-1.5548926172407158,-21.5625
1770155719.1144052,-33.84252403362696,0.7176272864619002,-7.349291892449658,0.6135760509225433,-1.095760239386327,9.759852128680098,-0.0012423851301999842,0.0017933561755617009,0.001090830782496456,-17.170681668147317,-1.5548926172407158,-21.5625
1770155719.1286411,-33.84252403362696,0.7176272864619002,-7.349291892449658,0.6106980453808798,-1.0976963640569035,9.759901593288436,0.0,0.0,0.001090830782496456,-16.554171228006872,-1.127792070299092,-22.375
1770155719.1416392,-33.84252403362696,0.7176272864619002,-7.349291892449658,0.6106980453808798,-1.0976963640569035,9.759901593288436,0.0,0.0,0.001090830782496456,-16.554171228006872,-1.127792070299092,-22.375
1770155719.159315,-33.84252403362696,0.7176272864619002,-7.349291892449658,0.6068778327892952,-1.0962351050092447,9.763279623140049,-0.0012423851301999842,0.0017933561755617009,0.0,-16.554171228006872,-1.127792070299092,-22.375
1770155719.1849396,-33.84252403362696,0.7176272864619002,-7.349291892449658,0.6043355239841666,-1.0952626534363608,9.76552766427123,0.0015178706528808424,-0.0002754855226808584,-0.001090830782496456,-16.554171228006872,-1.127792070299092,-22.375
1770155719.2012842,-33.84252403362696,0.7176272864619002,-7.349291892449658,0.6053933742618014,-1.0927105657245664,9.770368822239087,0.0006211925650999921,-0.0008966780877808504,0.0,1666.171460026385,1164.9198377113958,-21.1875
1770155719.2160842,-33.84252403362696,0.7176272864619002,-7.349291892449658,0.6053933742618014,-1.0927105657245664,9.770368822239087,0.0006211925650999921,-0.0008966780877808504,0.0,1666.171460026385,1164.9198377113958,-21.1875
1770155719.2365324,-33.84252403362696,0.7176272864619002,-7.349291892449658,0.6060973618046056,-1.0910121798610553,9.766900335372778,0.0005509710453617168,0.0030357413057616853,0.001090830782496456,1666.171460026385,1164.9198377113958,-21.1875
1770155719.25069,-33.84252403362696,0.7176272864619002,-7.349291892449658,0.6065658576502856,-1.0898819230411014,9.767937207816106,-0.0008966780877808504,-0.0006211925650999921,-0.001090830782496456,1666.171460026385,1164.9198377113958,-21.1875
1770155719.263393,-33.84252403362696,0.7176272864619002,-7.349291892449658,0.6065658576502856,-1.0898819230411014,9.767937207816106,-0.0008966780877808504,-0.0006211925650999921,-0.001090830782496456,1666.171460026385,1164.9198377113958,-21.1875
1770155719.2757754,-33.84252403362696,0.7176272864619002,-7.349291892449658,0.60878256845518,-1.091879478141216,9.768627234844516,0.0012423851301999842,-0.0017933561755617009,0.0,-15.842336983104166,-2.1553094705331697,-22.0
1770155719.2879753,-33.84252403362696,0.7176272864619002,-7.349291892449658,0.6075080363455572,-1.0951137607992258,9.769086440123816,-0.0015178706528808424,0.0002754855226808584,-0.001090830782496456,-15.842336983104166,-2.1553094705331697,-22.0
1770155719.300174,-33.84252403362696,0.7176272864619002,-7.349291892449658,0.6075080363455572,-1.0951137607992258,9.769086440123816,-0.0015178706528808424,0.0002754855226808584,-0.001090830782496456,-15.842336983104166,-2.1553094705331697,-22.0
1770155719.3132908,-33.84252403362696,0.7176272864619002,-7.349291892449658,0.6094095778520576,-1.0953612077257908,9.769392036107533,0.0002754855226808584,0.0015178706528808426,0.001090830782496456,-15.842336983104166,-2.1553094705331697,-22.0
1770155719.3269615,-33.84252403362696,0.7176272864619002,-7.349291892449658,0.6106750324830232,-1.0955258808912565,9.769595406820965,-0.0015178706528808424,0.0002754855226808584,-0.001090830782496456,-17.170681668147317,-1.5548926172407158,-21.5625
1770155719.3391542,-33.84252403362696,0.7176272864619002,-7.349291892449658,0.6106750324830232,-1.0955258808912565,9.769595406820965,-0.0015178706528808424,0.0002754855226808584,-0.001090830782496456,-17.170681668147317,-1.5548926172407158,-21.5625
1770155719.351572,-33.84252403362696,0.7176272864619002,-7.349291892449658,0.6134221104569124,-1.098385197431352,9.769730747758954,0.0002754855226808584,0.0015178706528808426,-0.001090830782496456,-17.170681668147317,-1.5548926172407158,-21.5625
1770155719.364294,-33.84252403362696,0.7176272864619002,-7.349291892449658,0.6114403960555921,-1.0947885838721312,9.769820815641328,0.0006211925650999921,-0.0008966780877808504,0.0,-17.170681668147317,-1.5548926172407158,-21.5625
1770155719.3788922,-33.84252403362696,0.7176272864619002,-7.349291892449658,0.6114403960555921,-1.0947885838721312,9.769820815641328,0.0006211925650999921,-0.0008966780877808504,0.0,-17.170681668147317,-1.5548926172407158,-21.5625
1770155719.391336,-33.84252403362696,0.7176272864619002,-7.349291892449658,0.6101215872587138,-1.0923950777252758,9.763190531396285,-0.0015178706528808424,0.0002754855226808584,-0.001090830782496456,-15.680781437807903,-0.5227329621317949,-21.5625
1770155719.404116,-33.84252403362696,0.7176272864619002,-7.349291892449658,0.6101215872587138,-1.0923950777252758,9.763190531396285,-0.0015178706528808424,0.0002754855226808584,-0.001090830782496456,-15.680781437807903,-0.5227329621317949,-21.5625
1770155719.4182863,-33.84252403362696,0.7176272864619002,-7.349291892449658,0.6092439347364508,-1.090802226121759,9.758778151296337,-0.0012423851301999842,0.0017933561755617009,-0.002181661564992912,-15.680781437807903,-0.5227329621317949,-21.5625
1770155719.4318404,-33.84252403362696,0.7176272864619002,-7.349291892449658,0.6086598667869058,-1.0897422011729367,9.762531985043976,0.0002754855226808584,0.0015178706528808426,-0.001090830782496456,-15.680781437807903,-0.5227329621317949,-21.5625
1770155719.4446654,-33.84252403362696,0.7176272864619002,-7.349291892449658,0.6086598667869058,-1.0897422011729367,9.762531985043976,0.0002754855226808584,0.0015178706528808426,-0.001090830782496456,-15.680781437807903,-0.5227329621317949,-21.5625
1770155719.457196,-33.84252403362696,0.7176272864619002,-7.349291892449658,0.6055214477029522,-1.090941698463786,9.765030119469959,-0.002760255783080827,0.0020688416982425593,-0.001090830782496456,-17.05616916706934,-1.1714305759682242,-22.75
1770155719.4695954,-33.84252403362696,0.7176272864619002,-7.349291892449658,0.6053377969140553,-1.0944896788995815,9.760002376609823,0.0,0.0,0.001090830782496456,-17.05616916706934,-1.1714305759682242,-22.75
1770155719.4822483,-33.84252403362696,0.7176272864619002,-7.349291892449658,0.6053377969140553,-1.0944896788995815,9.760002376609823,0.0,0.0,0.001090830782496456,-17.05616916706934,-1.1714305759682242,-22.75
1770155719.49462,-33.84252403362696,0.7176272864619002,-7.349291892449658,0.6052155793655581,-1.096850820246065,9.75665646989997,0.0015178706528808424,-0.0002754855226808584,0.0,-17.05616916706934,-1.1714305759682242,-22.75
1770155719.5067708,-33.84252403362696,0.7176272864619002,-7.349291892449658,0.6078839733402908,-1.096517201383437,9.754429806360788,-0.0006211925650999921,0.0008966780877808504,0.002181661564992912,-15.937660787866424,-0.7006915233574709,-22.0
1770155719.5209024,-33.84252403362696,0.7176272864619002,-7.349291892449658,0.6078839733402908,-1.096517201383437,9.754429806360788,-0.0006211925650999921,0.0008966780877808504,0.002181661564992912,-15.937660787866424,-0.7006915233574709,-22.0
1770155719.5339592,-33.84252403362696,0.7176272864619002,-7.349291892449658,0.6105045560575234,-1.091640521316091,9.759638210063564,-0.0008966780877808504,-0.0006211925650999921,-0.001090830782496456,-15.937660787866424,-0.7006915233574709,-22.0
1770155719.5469959,-33.84252403362696,0.7176272864619002,-7.349291892449658,0.6122485245820147,-1.088395145207358,9.7664494562534,-0.0008966780877808504,-0.0006211925650999921,-0.001090830782496456,-15.937660787866424,-0.7006915233574709,-22.0
1770155719.559184,-33.84252403362696,0.7176272864619002,-7.349291892449658,0.6122485245820147,-1.088395145207358,9.7664494562534,-0.0008966780877808504,-0.0006211925650999921,-0.001090830782496456,-15.937660787866424,-0.7006915233574709,-22.0
1770155719.5713825,-33.84252403362696,0.7176272864619002,-7.349291892449658,0.6153140482066948,-1.0889851120482206,9.770982264506129,0.0,0.0,0.001090830782496456,-16.696538076987412,-0.9222885902522764,-21.1875
1770155719.584078,-33.84252403362696,0.7176272864619002,-7.349291892449658,0.6153140482066948,-1.0889851120482206,9.770982264506129,0.0,0.0,0.001090830782496456,-16.696538076987412,-0.9222885902522764,-21.1875
1770155719.5982175,-33.84252403362696,0.7176272864619002,-7.349291892449658,0.6173541199347767,-1.0893777283904533,9.767308574348895,0.0012423851301999842,-0.0017933561755617009,0.0,-16.696538076987412,-0.9222885902522764,-21.1875
1770155719.6107862,-33.84252403362696,0.7176272864619002,-7.349291892449658,0.6159620364927229,-1.0915439422334332,9.761518662879746,-0.0015178706528808424,0.0002754855226808584,-0.003272492347489368,-16.696538076987412,-0.9222885902522764,-21.1875
1770155719.6233668,-33.84252403362696,0.7176272864619002,-7.349291892449658,0.6159620364927229,-1.0915439422334332,9.761518662879746,-0.0015178706528808424,0.0002754855226808584,-0.003272492347489368,-16.696538076987412,-0.9222885902522764,-21.1875
1770155719.635502,-33.84252403362696,0.7176272864619002,-7.349291892449658,0.6095361637366311,-1.096795397453814,9.757665541474577,-0.0015178706528808424,0.0002754855226808584,-0.002181661564992912,-17.313048517127857,-1.3493891371939002,-21.1875
1770155719.647719,-33.84252403362696,0.7176272864619002,-7.349291892449658,0.6052598171991542,-1.1002901822403788,9.758446443928941,0.0002754855226808584,0.0015178706528808426,0.002181661564992912,-17.313048517127857,-1.3493891371939002,-21.1875
1770155719.6600173,-33.84252403362696,0.7176272864619002,-7.349291892449658,0.6052598171991542,-1.1002901822403788,9.758446443928941,0.0002754855226808584,0.0015178706528808426,0.002181661564992912,-17.313048517127857,-1.3493891371939002,-21.1875
1770155719.6743462,-33.84252403362696,0.7176272864619002,-7.349291892449658,0.6087582094593419,-1.094151397929428,9.758966125789069,-0.0006211925650999921,0.0008966780877808504,0.0,-17.313048517127857,-1.3493891371939002,-21.1875
1770155719.6876512,-33.84252403362696,0.7176272864619002,-7.349291892449658,0.6110863504288946,-1.0900661055452041,9.762657079969076,-0.002760255783080827,0.0020688416982425593,0.0,-16.554171228006872,-1.127792070299092,-21.5625
1770155719.6998432,-33.84252403362696,0.7176272864619002,-7.349291892449658,0.6110863504288946,-1.0900661055452041,9.762657079969076,-0.002760255783080827,0.0020688416982425593,0.0,-16.554171228006872,-1.127792070299092,-21.5625
1770155719.7124894,-33.84252403362696,0.7176272864619002,-7.349291892449658,0.6164455663431652,-1.0928468458752052,9.761768257037891,-0.0006211925650999921,0.0008966780877808504,0.0,-16.554171228006872,-1.127792070299092,-21.5625
1770155719.724639,-33.84252403362696,0.7176272864619002,-7.349291892449658,0.6172623362797498,-1.0966023295549518,9.77121209042795,-0.0006211925650999921,0.0008966780877808504,0.0,-16.554171228006872,-1.127792070299092,-21.5625
1770155719.7368183,-33.84252403362696,0.7176272864619002,-7.349291892449658,0.6172623362797498,-1.0966023295549518,9.77121209042795,-0.0006211925650999921,0.0008966780877808504,0.0,-16.554171228006872,-1.127792070299092,-21.5625
1770155719.7492137,-33.84252403362696,0.7176272864619002,-7.349291892449658,0.6139960234425572,-1.093602105216326,9.764116409225224,0.001172163610461709,0.002139063217980835,0.001090830782496456,-16.554171228006872,-1.127792070299092,-21.5625
1770155719.7614923,-33.84252403362696,0.7176272864619002,-7.349291892449658,0.6090726003485126,-1.0935104214867084,9.772774759478041,-0.0012423851301999842,0.0017933561755617009,-0.001090830782496456,-16.32916962256291,-0.13555695322872807,-21.1875
1770155719.7741702,-33.84252403362696,0.7176272864619002,-7.349291892449658,0.6090726003485126,-1.0935104214867084,9.772774759478041,-0.0012423851301999842,0.0017933561755617009,-0.001090830782496456,-16.32916962256291,-0.13555695322872807,-21.1875
1770155719.7866197,-33.84252403362696,0.7176272864619002,-7.349291892449658,0.6085458456656635,-1.091544474935786,9.771846571436543,0.0008966780877808504,0.0006211925650999921,0.0,-16.32916962256291,-0.13555695322872807,-21.1875
1770155719.7988465,-33.84252403362696,0.7176272864619002,-7.349291892449658,0.6081952963084628,-1.0902361594672094,9.771228872663464,-0.0008966780877808504,-0.0006211925650999921,-0.002181661564992912,-16.32916962256291,-0.13555695322872807,-21.1875
1770155719.8111758,-33.84252403362696,0.7176272864619002,-7.349291892449658,0.6081952963084628,-1.0902361594672094,9.771228872663464,-0.0008966780877808504,-0.0006211925650999921,-0.002181661564992912,-16.32916962256291,-0.13555695322872807,-21.1875
